gyro_x;gyro_y;gyro_z;accel_x;accel_y;accel_z;label
31.450.382;8.022.901;-0.1908397;0.0146484368;0.044189452;0.87109376;0
33.435.114;-16.335.878;-0.54198476;0.022460938;0.04345703;0.8640137;0
3.167.939;-861.832;-0.55725192;0.051513672;0.029052734;0.8496094;0
31.755.726;18.305.344;-0.473282468;0.03881836;0.045898436;0.86621096;0
33.282.442;22.366.412;-0.33587788;0.014892578;0.0397949216;0.855468736;0
32.290.078;0.015267176;-0.473282468;0.0107421868;0.0383300768;0.87109376;0
31.755.726;21.908.398;-0.091603052;0.009277344;0.043701172;0.8779297;0
32.137.404;28.931.298;-0.259542;0.008544922;0.0397949216;0.86816408;0
30.687.022;23.816.792;-0.60305348;0.011962891;0.041992188;0.8811035;0
32.824.428;43.587.784;-0.55725192;0.014892578;0.046875;0.87280268;0
3.351.145;26.030.534;-0.35877864;0.010986328;0.041503908;0.87231448;0
31.755.726;2.816.794;-0.28244276;0.01171875;0.03857422;0.8688965;0
31.221.372;26.717.558;-0.129771;0.010986328;0.04296875;0.86499024;0
31.603.052;2.221.374;-0.465648868;0.013916016;0.03955078;0.876464832;0
3.167.939;0.229007632;-0.57251908;0.016113282;0.04711914;0.8786621;0
30.305.342;19.541.985;-0.52671752;0.015625;0.0461425784;0.8754883;0
32.290.078;27.862.596;-0.33587788;0.0175781252;0.048828124;0.8623047;0
31.908.398;32.519.084;-0.27480916;0.018066406;0.041259764;0.8713379;0
31.221.372;25.648.854;-0.412213736;0.013427734;0.04638672;0.8684082;0
3.183.206;4.183.206;-0.26717558;0.007080078;0.045898436;0.8720703;0
30.458.016;26.183.208;-0.2519084;0.010986328;0.040527344;0.867431632;0
33.053.436;2.534.351;-0.33587788;0.001953125;0.04248047;0.8781738;0
33.053.436;69.770.992;-0.35114504;0.001953125;0.036865236;0.8691406;0
32.442.748;3.183.206;-0.52671752;0.0075683592;0.0397949216;0.876464832;0
3.206.107;410.687;-0.198473292;-0.00366210936;0.043701172;0.873291;0
31.221.372;28.473.282;-0.3053435;-0.0061035156;0.044433592;0.8708496;0
3.335.878;362.595.432;-0.16030534;-0.0043945312;0.03955078;0.86694332;0
31.221.372;3.664.122;-0.60305348;-0.0126953128;0.044189452;0.87768552;0
329.771;37.251.908;-0.206106868;-0.0107421868;0.0397949216;0.86694332;0
3.167.939;23.435.114;-0.5496183;-0.008300781;0.044677736;0.873291;0
33.206.108;29.694.658;-0.412213736;-0.012207031;0.032958984;0.8679199;0
33.053.436;3.557.252;-0.2519084;-0.010986328;0.044677736;0.86376952;0
31.145.038;37.480.916;-0.229007632;-0.016357422;0.041015624;0.8679199;0
32.366.412;35.801.528;-0.29007636;-0.013427734;0.042236328;0.8666992;0
32.671.756;31.526.718;-0.4351145;-0.024414062;0.040771484;0.8623047;0
3.129.771;1.908.397;-0.4351145;-0.014404297;0.049072264;0.86499024;0
3.183.206;25.114.504;-0.45038168;-0.015380859;0.044921876;0.867431632;0
32.290.078;2.480.916;-0.465648868;-0.017333984;0.037109376;0.8745117;0
3.183.206;29.847.328;-0.473282468;-0.018066406;0.041748048;0.8742676;0
32.137.404;27.099.238;-0.55725192;-0.014160156;0.04345703;0.8652344;0
3.129.771;23.587.788;-0.236641232;-0.023925782;0.044189452;0.8640137;0
32.824.428;3.870.229;-0.3053435;-0.015380859;0.044677736;0.8769531;0
32.671.756;3.832.061;-0.5038168;-0.02368164;0.044921876;0.8613281;0
32.442.748;2.961.832;-0.4351145;-0.029052734;0.04296875;0.8647461;0
32.137.404;22.137.404;-0.465648868;-0.017822266;0.04321289;0.87280268;0
30.839.694;24.503.818;-0.488549632;-0.01586914;0.05078125;0.87109376;0
32.366.412;26.564.886;-0.198473292;-0.02319336;0.040039064;0.8688965;0
32.671.756;31.068.702;-0.244274816;-0.022949218;0.04638672;0.859375;0
3.335.878;31.221.372;-0.458015268;-0.026367188;0.044677736;0.8640137;0
32.366.412;33.816.792;-0.5038168;-0.016601562;0.040527344;0.8757324;0
3.259.542;2.664.122;-0.061068704;-0.024902344;0.040283204;0.87060544;0
33.435.114;35.801.528;-0.3053435;-0.03149414;0.04272461;0.8730469;0
31.755.726;3.038.168;-0.053435112;-0.024658204;0.04272461;0.8640137;0
3.389.313;391.603.068;-0.1908397;-0.02734375;0.04736328;0.86865232;0
30.839.694;3.129.771;-0.3816794;-0.01928711;0.0461425784;0.867431632;0
31.984.732;1.961.832;-0.35114504;-0.02368164;0.0461425784;0.869384768;0
32.290.078;26.564.886;-0.3740458;-0.026367188;0.045410156;0.86621096;0
33.587.788;1.389.313;-0.2977099;-0.028808594;0.044433592;0.8691406;0
31.755.726;21.450.382;-0.27480916;-0.025146484;0.037109376;0.8654785;0
3.129.771;2.870.229;-0.35114504;-0.021240234;0.043701172;0.8713379;0
3.206.107;3.183.206;-0.465648868;-0.0234375;0.03930664;0.87109376;0
32.824.428;25.038.168;-0.221374052;-0.020507812;0.037109376;0.8666992;0
32.824.428;34.885.496;-0.5038168;-0.025146484;0.04638672;0.861084;0
3.221.374;27.251.908;-0.5114504;-0.026855468;0.049804688;0.87231448;0
31.908.398;27.633.588;-0.519084;-0.0234375;0.041503908;0.86376952;0
32.900.762;28.244.274;-0.5496183;-0.022216796;0.04711914;0.87280268;0
32.519.084;38.396.948;-0.4427481;-0.024902344;0.04711914;0.869384768;0
31.374.046;2.648.855;-0.28244276;-0.026855468;0.035888672;0.8713379;0
3.351.145;12.366.412;-0.5038168;-0.024169922;0.043701172;0.86987304;0
31.145.038;22.748.092;-0.3129771;-0.021728516;0.041503908;0.86694332;0
3.129.771;32.748.092;-0.13740458;-0.03100586;0.03857422;0.86328124;0
3.129.771;27.557.252;-0.27480916;-0.028076172;0.03955078;0.8625488;0
31.603.052;21.908.398;-0.259542;-0.024414062;0.041015624;0.86279292;0
31.145.038;29.312.978;-0.53435116;-0.033203124;0.045898436;0.8640137;0
3.053.435;32.671.756;-0.4351145;-0.028564454;0.04272461;0.8640137;0
3.206.107;33.053.436;-0.5114504;-0.0214843736;0.048583984;0.8691406;0
3.206.107;17.480.916;-0.259542;-0.027832032;0.037597656;0.8713379;0
32.900.762;17.709.924;-0.206106868;-0.022216796;0.036865236;0.8720703;0
31.145.038;22.442.748;-0.4427481;-0.025146484;0.044921876;0.8737793;0
31.374.046;28.549.618;-0.3740458;-0.028320312;0.040283204;0.8647461;0
31.221.372;17.328.244;-0.259542;-0.02758789;0.04736328;0.8676758;0
31.374.046;13.587.786;-0.54198476;-0.02734375;0.040527344;0.86621096;0
31.145.038;26.564.886;-0.3129771;-0.025878906;0.04321289;0.873535168;0
31.450.382;2.389.313;-0.26717558;-0.022216796;0.043701172;0.8652344;0
32.442.748;19.923.664;-0.244274816;-0.022949218;0.044189452;0.86621096;0
3.183.206;3.351.145;-0.32061068;-0.025146484;0.043701172;0.85717776;0
31.755.726;30.229.008;-0.52671752;-0.02709961;0.044921876;0.86157224;0
30.839.694;2.038.168;-0.33587788;-0.0214843736;0.04296875;0.86083984;0
32.519.084;03.00;-0.32061068;-0.024414062;0.045654296;0.86328124;0
3.221.374;27.633.588;-0.396946584;-0.027832032;0.041015624;0.8691406;0
3.427.481;18.931.298;-0.45038168;-0.013427734;0.040771484;0.8701172;0
31.603.052;240.458;-0.53435116;-0.022216796;0.052978516;0.86621096;0
31.603.052;34.580.152;-0.32824428;-0.029785156;0.036865236;0.8688965;0
31.603.052;30.992.368;-0.198473292;-0.01928711;0.045166016;0.86499024;0
32.290.078;36.412.212;-0.244274816;-0.024169922;0.04248047;0.871582032;0
31.145.038;32.366.412;-0.35114504;-0.02319336;0.044921876;0.8730469;0
34.961.832;2.335.878;-0.480916032;-0.026123046;0.040771484;0.8745117;0
3.183.206;40.076.336;-0.14503818;-0.018554688;0.040283204;0.8630371;0
31.603.052;3.351.145;-0.099236648;-0.022460938;0.045166016;0.8654785;0
31.908.398;19.312.977;-0.3816794;-0.020751954;0.043945312;0.8654785;0
30.152.672;2.778.626;-0.29007636;-0.0234375;0.0390625;0.87597656;0
329.771;2.778.626;-0.236641232;-0.025634766;0.044921876;0.8618164;0
31.221.372;34.580.152;-0.54198476;-0.027832032;0.04248047;0.86987304;0
3.183.206;35.038.168;-0.54198476;-0.025146484;0.049560548;0.8691406;0
31.068.702;34.885.496;-0.229007632;-0.03125;0.044677736;0.88012696;0
31.755.726;35.038.168;-0.396946584;-0.029785156;0.04272461;0.8666992;0
32.137.404;27.633.588;-0.35114504;-0.03100586;0.041992188;0.876709;0
3.129.771;3.610.687;-0.389312984;-0.03173828;0.044677736;0.8647461;0
31.755.726;2.908.397;-0.65648852;-0.033691408;0.0397949216;0.87231448;0
3.183.206;2.312.977;-0.40458016;-0.026123046;0.043945312;0.86816408;0
33.053.436;2.610.687;-0.32824428;-0.03149414;0.040039064;0.86816408;0
3.129.771;31.526.718;-0.65648852;-0.028564454;0.044921876;0.86694332;0
31.984.732;19.770.992;-0.5038168;-0.027832032;0.045654296;0.8676758;0
33.816.792;179.389.316;-0.27480916;-0.03955078;0.043945312;0.8642578;0
3.129.771;23.740.458;-0.54198476;-0.030029296;0.041503908;0.87524416;0
31.450.382;28.778.628;-0.236641232;-0.030273438;0.043945312;0.8725586;0
339.694.668;2.832.061;-0.366412232;-0.03466797;0.043945312;0.8605957;0
30.610.688;28.473.282;-0.33587788;-0.032958984;0.04296875;0.86499024;0
3.351.145;26.183.208;-0.458015268;-0.028076172;0.04321289;0.8696289;0
3.091.603;37.480.916;-0.16030534;-0.032714844;0.03930664;0.8679199;0
32.519.084;336.641.232;-0.21374046;-0.036865236;0.040771484;0.86621096;0
31.908.398;2.740.458;-0.244274816;-0.031982422;0.044433592;0.864501936;0
329.771;30.992.368;-0.5114504;-0.031982422;0.048339844;0.86572264;0
3.351.145;25.648.854;-0.244274816;-0.032470704;0.043945312;0.8625488;0
31.221.372;28.015.268;-0.3129771;-0.033691408;0.04321289;0.864501936;0
3.221.374;31.221.372;-0.27480916;-0.029541016;0.043701172;0.871582032;0
31.908.398;270.229;-0.32061068;-0.03540039;0.044677736;0.8676758;0
31.374.046;25.877.862;-0.27480916;-0.032714844;0.0461425784;0.8688965;0
32.671.756;32.824.428;-0.480916032;-0.041259764;0.04736328;0.8703613;0
3.183.206;28.854.962;-0.14503818;-0.032470704;0.044189452;0.8742676;0
3.076.336;32.824.428;-0.35114504;-0.036376952;0.040283204;0.8720703;0
3.259.542;03.00;-0.366412232;-0.03491211;0.040771484;0.8588867;0
31.068.702;27.328.244;-0.198473292;-0.034423828;0.041503908;0.86865232;0
31.984.732;240.458;-0.4961832;-0.033935548;0.038085936;0.8552246;0
3.183.206;3.221.374;-0.32824428;-0.032714844;0.05053711;0.8569336;0
3.129.771;17.557.252;-0.366412232;-0.030761718;0.04321289;0.8666992;0
31.526.718;2.610.687;-0.3129771;-0.036376952;0.041015624;0.8718262;0
32.290.078;28.625.954;-0.35114504;-0.04248047;0.041748048;0.8652344;0
31.603.052;2.946.565;-0.419847336;-0.03930664;0.045654296;0.8691406;0
32.519.084;28.549.618;-0.412213736;-0.048583984;0.043945312;0.87597656;0
3.351.145;29.312.978;-0.3053435;-0.038085936;0.044189452;0.861084;0
32.366.412;26.335.878;-0.480916032;-0.037597656;0.045410156;0.859375;0
33.053.436;2.519.084;-0.2977099;-0.034179688;0.04296875;0.858398464;0
33.435.114;28.473.282;-0.32061068;-0.033691408;0.038085936;0.8684082;0
33.587.788;28.549.618;-0.2977099;-0.03564453;0.04296875;0.86328124;0
3.206.107;26.183.208;-0.35877864;-0.045410156;0.040527344;0.871582032;0
3.183.206;2.908.397;-0.58778624;-0.035888672;0.040771484;0.8725586;0
3.167.939;24.503.818;-0.1908397;-0.043701172;0.041992188;0.87402344;0
32.519.084;24.122.138;-0.458015268;-0.043945312;0.041503908;0.8676758;0
32.671.756;30.839.694;-0.4351145;-0.04272461;0.0390625;0.867431632;0
32.137.404;24.961.832;-0.389312984;-0.042236328;0.044677736;0.8774414;0
30.305.342;26.183.208;-0.259542;-0.037841796;0.037353516;0.8652344;0
33.282.442;28.244.274;-0.27480916;-0.03540039;0.043945312;0.86328124;0
31.450.382;270.229;-0.412213736;-0.036621092;0.041748048;0.8666992;0
31.221.372;2.793.893;-0.2977099;-0.042236328;0.040283204;0.8679199;0
34.198.472;24.122.138;-0.33587788;-0.037353516;0.044677736;0.8688965;0
32.671.756;25.801.528;-0.4427481;-0.041259764;0.045166016;0.8635254;0
32.442.748;2.572.519;-0.419847336;-0.043701172;0.037841796;0.8769531;0
31.221.372;3.053.435;-0.35877864;-0.037841796;0.041503908;0.8623047;0
30.687.022;26.335.878;-0.21374046;-0.041748048;0.043945312;0.8647461;0
3.183.206;29.007.632;-0.2977099;-0.034423828;0.040771484;0.86157224;0
30.305.342;25.496.182;-0.14503818;-0.047851564;0.041992188;0.8666992;0
3.129.771;30.458.016;-0.13740458;-0.045166016;0.044189452;0.8654785;0
31.984.732;29.312.978;-0.17557252;-0.040527344;0.040527344;0.858398464;0
31.526.718;30.992.368;-0.33587788;-0.036376952;0.044921876;0.8684082;0
31.984.732;2.480.916;-0.198473292;-0.040283204;0.042236328;0.8757324;0
3.091.603;28.549.618;-0.396946584;-0.0390625;0.044433592;0.86865232;0
32.366.412;26.335.878;-0.3816794;-0.044677736;0.041748048;0.873291;0
32.519.084;25.801.528;-0.4961832;-0.03564453;0.036376952;0.85595704;0
31.450.382;27.862.596;-0.198473292;-0.03515625;0.04272461;0.8659668;0
3.091.603;28.778.628;-0.396946584;-0.040039064;0.0476074216;0.8630371;0
30.687.022;2.534.351;-0.3816794;-0.03930664;0.044921876;0.8618164;0
31.755.726;2.778.626;-0.2519084;-0.0390625;0.044189452;0.86621096;0
3.183.206;31.221.372;-0.465648868;-0.0476074216;0.041015624;0.8630371;0
3.091.603;24.961.832;-0.412213736;-0.040283204;0.041748048;0.864501936;0
31.145.038;2.259.542;-0.2977099;-0.052246092;0.045898436;0.8527832;0
337.404.568;26.564.886;-0.4274809;-0.042236328;0.04321289;0.8618164;0
31.908.398;26.030.534;-0.35877864;-0.03881836;0.042236328;0.86206056;0
31.984.732;26.183.208;-0.32824428;-0.036376952;0.0476074216;0.85961912;0
3.091.603;28.549.618;-0.5114504;-0.040527344;0.04638672;0.8640137;0
32.137.404;27.633.588;-0.259542;-0.037109376;0.037109376;0.869384768;0
3.206.107;25.801.528;-0.396946584;-0.0461425784;0.044921876;0.8647461;0
32.137.404;25.496.182;-0.27480916;-0.041992188;0.044189452;0.87402344;0
3.221.374;3.687.023;-0.343511468;-0.043945312;0.045654296;0.86376952;0
3.221.374;32.519.084;-0.4427481;-0.04711914;0.049316408;0.86376952;0
31.450.382;27.862.596;-0.33587788;-0.04345703;0.040771484;0.8840332;0
32.824.428;27.557.252;-0.4274809;-0.040527344;0.041748048;0.8647461;0
32.671.756;29.770.992;-0.3129771;-0.045898436;0.04321289;0.876709;0
3.259.542;29.312.978;-0.32824428;-0.041259764;0.041992188;0.85058592;0
31.068.702;27.328.244;-0.29007636;-0.044921876;0.0390625;0.861084;0
32.366.412;23.816.792;-0.14503818;-0.04663086;0.045898436;0.87524416;0
32.366.412;23.053.436;-0.6793893;-0.043701172;0.048339844;0.86816408;0
3.167.939;28.778.628;-0.5954198;-0.044433592;0.04296875;0.8730469;0
32.366.412;3.183.206;-0.610687;-0.040527344;0.0476074216;0.86499024;0
32.137.404;31.526.718;-0.244274816;-0.04663086;0.040039064;0.86376952;0
3.183.206;336.641.232;-0.32061068;-0.048339844;0.041503908;0.85961912;0
33.816.792;23.664.122;-0.206106868;-0.05126953;0.04272461;0.85717776;0
32.748.092;2.961.832;-0.229007632;-0.05029297;0.0461425784;0.86694332;0
31.755.726;26.030.534;-0.29007636;-0.048339844;0.041748048;0.86694332;0
31.755.726;29.694.658;-0.3129771;-0.045654296;0.03930664;0.86157224;0
31.526.718;339.694.668;-0.33587788;-0.053222656;0.0397949216;0.869384768;0
3.335.878;29.923.664;-0.389312984;-0.050048828;0.040771484;0.8654785;0
31.145.038;34.198.472;-0.4351145;-0.0476074216;0.041748048;0.8635254;0
31.068.702;31.984.732;-0.4351145;-0.045654296;0.046875;0.86157224;0
3.259.542;30.305.342;-0.343511468;-0.050048828;0.045166016;0.8774414;0
32.137.404;24.885.496;-0.3053435;-0.044677736;0.048339844;0.86206056;0
32.290.078;29.007.632;-0.366412232;-0.045898436;0.04638672;0.873291;0
3.183.206;3.206.107;-0.60305348;-0.045898436;0.042236328;0.8623047;0
31.755.726;2.816.794;-0.259542;-0.048339844;0.040771484;0.8623047;0
32.442.748;23.816.792;-0.366412232;-0.046875;0.04638672;0.8664551;0
3.259.542;61.297.708;-0.35877864;-0.03930664;0.049560548;0.88623048;0
3.076.336;54.503.816;-0.5801527;-0.061523436;0.041503908;0.86083984;0
31.603.052;20.229.008;-0.4351145;-0.0546875;0.043945312;0.87402344;0
3.259.542;-0.9389313;-0.03816794;-0.07495117;0.044189452;0.88720708;0
30.458.016;0.6335878;-0.16793894;-0.056640624;0.044433592;0.86694332;0
31.374.046;60.076.336;-0.60305348;-0.052246092;0.03955078;0.8708496;0
32.366.412;44.274.808;-0.3053435;-0.053466796;0.045898436;0.8742676;0
31.068.702;53.206.104;-0.419847336;-0.06298828;0.03930664;0.8625488;0
3.167.939;44.961.832;-0.52671752;-0.0625;0.043945312;0.8625488;0
31.908.398;24.732.824;-0.488549632;-0.05859375;0.043701172;0.8635254;0
32.137.404;329.771;-0.3816794;-0.05908203;0.04638672;0.873291;0
32.290.078;2.793.893;-0.33587788;-0.05908203;0.048095704;0.86865232;0
31.526.718;32.900.762;-0.52671752;-0.06225586;0.041503908;0.87402344;0
3.259.542;28.244.274;-0.129771;-0.059814452;0.04321289;0.86376952;0
30.305.342;3.038.168;-0.519084;-0.0625;0.04711914;0.869384768;0
31.374.046;25.267.176;-0.4274809;-0.061035156;0.0476074216;0.8676758;0
3.206.107;28.854.962;-0.33587788;-0.060058592;0.041992188;0.8725586;0
31.603.052;30.992.368;-0.488549632;-0.052001952;0.048339844;0.8520508;0
32.290.078;27.709.922;-0.35877864;-0.063964844;0.044189452;0.86987304;0
31.145.038;0.32824428;-0.045801528;-0.060302736;0.045410156;0.8647461;0
31.374.046;21.374.046;-0.35877864;-0.05908203;0.037597656;0.860351536;0
31.145.038;4.183.206;-0.488549632;-0.059814452;0.049072264;0.859375;0
32.824.428;41.603.056;-0.412213736;-0.05908203;0.04321289;0.86816408;0
31.908.398;8.763.359;-0.396946584;-0.049072264;0.044921876;0.8676758;0
3.312.977;20.687.022;-0.28244276;-0.057861328;0.045166016;0.86206056;0
32.137.404;31.374.046;-0.221374052;-0.0554199232;0.03857422;0.860351536;0
3.091.603;32.366.412;-0.221374052;-0.05908203;0.043701172;0.86157224;0
3.221.374;27.709.922;-0.32061068;-0.057861328;0.04248047;0.87402344;0
30.992.368;43.129.772;-0.45038168;-0.07104492;0.03881836;0.86572264;0
3.335.878;2.832.061;-0.343511468;-0.059814452;0.044921876;0.8586426;0
3.221.374;3.038.168;-0.4274809;-0.068359376;0.03881836;0.86279292;0
3.167.939;29.923.664;-0.60305348;-0.06542969;0.044921876;0.87060544;0
32.824.428;23.206.108;-0.343511468;-0.064453124;0.041503908;0.86694332;0
3.206.107;27.251.908;-0.465648868;-0.06201172;0.040771484;0.8652344;0
33.282.442;33.206.108;-0.519084;-0.06201172;0.041748048;0.8640137;0
3.335.878;2.664.122;-0.40458016;-0.064697268;0.041748048;0.861084;0
32.671.756;21.221.372;-0.40458016;-0.06738281;0.044189452;0.8640137;0
33.206.108;30.458.016;-0.6335878;-0.06567383;0.036621092;0.8601074;0
32.748.092;31.145.038;-0.366412232;-0.05883789;0.04321289;0.8598633;0
32.900.762;31.984.732;-0.32061068;-0.067871096;0.04296875;0.8725586;0
3.076.336;32.366.412;-0.6335878;-0.06738281;0.045166016;0.8701172;0
31.450.382;35.114.504;-0.27480916;-0.06738281;0.04638672;0.864501936;0
32.900.762;30.687.022;-0.35877864;-0.0715332;0.04248047;0.8605957;0
32.442.748;26.412.212;-0.5648855;-0.072753908;0.040283204;0.8642578;0
3.129.771;270.229;-0.488549632;-0.07055664;0.040039064;0.86621096;0
31.603.052;28.854.962;-0.8244275;-0.06542969;0.047851564;0.8725586;0
30.992.368;22.366.412;-0.5954198;-0.06347656;0.040527344;0.861084;0
31.145.038;27.862.596;-0.412213736;-0.06591797;0.040283204;0.8623047;0
3.076.336;2.908.397;-0.28244276;-0.06958008;0.04248047;0.8522949;0
30.687.022;31.603.052;-0.32824428;-0.07055664;0.045898436;0.8557129;0
3.091.603;25.648.854;-0.343511468;-0.06591797;0.037109376;0.86206056;0
3.076.336;28.931.298;-0.519084;-0.068359376;0.045898436;0.855468736;0
3.206.107;2.961.832;-0.45038168;-0.06713867;0.04248047;0.8654785;0
30.305.342;25.648.854;-0.54198476;-0.06323242;0.040771484;0.86279292;0
31.755.726;26.183.208;-0.366412232;-0.06567383;0.04272461;0.855468736;0
32.366.412;25.038.168;-0.465648868;-0.067871096;0.048828124;0.8635254;0
31.145.038;30.305.342;-0.27480916;-0.07470703;0.048339844;0.8625488;0
3.351.145;2.816.794;-0.35114504;-0.067871096;0.036132812;0.86157224;0
3.129.771;270.229;-0.488549632;-0.06933594;0.04321289;0.859375;0
32.290.078;27.175.572;-0.5038168;-0.067871096;0.045898436;0.857666;0
3.206.107;20.610.688;-0.66412216;-0.06762695;0.046875;0.869384768;0
31.221.372;26.946.564;-0.488549632;-0.068847656;0.043701172;0.858398464;0
3.206.107;28.015.268;-0.35114504;-0.06689453;0.041992188;0.860351536;0
32.671.756;27.862.596;-0.35114504;-0.0715332;0.048828124;0.8640137;0
30.839.694;27.862.596;-0.28244276;-0.064208984;0.03955078;0.857666;0
30.992.368;270.229;-0.27480916;-0.068359376;0.04345703;0.869384768;0
31.221.372;3.221.374;-0.4427481;-0.072021484;0.0397949216;0.864501936;0
33.053.436;27.633.588;-0.389312984;-0.06591797;0.042236328;0.86083984;0
3.259.542;2.778.626;-0.2519084;-0.068603512;0.03857422;0.860351536;0
341.221.368;28.396.948;-0.16793894;-0.07446289;0.04248047;0.8679199;0
31.908.398;30.076.336;-0.396946584;-0.06616211;0.041015624;0.86621096;0
33.206.108;26.793.892;-0.07633588;-0.0617675768;0.045410156;0.8605957;0
31.755.726;27.328.244;-0.27480916;-0.06982422;0.03955078;0.86328124;0
31.068.702;28.931.298;-0.53435116;-0.068847656;0.037109376;0.8684082;0
3.221.374;3.076.336;-0.259542;-0.0637207;0.03955078;0.8630371;0
32.290.078;337.404.568;-0.343511468;-0.07006836;0.040283204;0.85717776;0
30.610.688;41.679.388;-0.458015268;-0.07055664;0.037841796;0.864501936;0
30.076.336;55.648.856;-0.389312984;-0.068115232;0.037109376;0.8659668;0
31.984.732;38.015.268;-0.206106868;-0.067871096;0.04296875;0.86157224;0
29.160.306;66.946.564;-0.3740458;-0.072021484;0.04321289;0.8574219;0
3.465.649;0.122137408;-0.2977099;-0.06591797;0.045410156;0.84643552;0
34.198.472;15.954.199;-0.3740458;-0.06762695;0.04321289;0.864501936;0
30.992.368;24.122.138;-0.122137408;-0.068847656;0.041015624;0.8540039;0
31.755.726;30.229.008;-0.419847336;-0.0637207;0.037109376;0.86206056;0
31.755.726;26.030.534;-0.67175576;-0.072509768;0.041503908;0.8574219;0
3.442.748;30.839.694;-0.5038168;-0.06933594;0.045166016;0.87231448;0
31.221.372;2.923.664;-0.244274816;-0.072509768;0.044189452;0.8466797;0
32.442.748;2.946.565;-0.45038168;-0.064941408;0.043945312;0.86279292;0
30.687.022;24.885.496;-0.29007636;-0.07446289;0.0476074216;0.85595704;0
32.137.404;2.793.893;-0.3053435;-0.072021484;0.044677736;0.8703613;0
29.007.632;28.091.602;-0.45038168;-0.06713867;0.043701172;0.8684082;0
329.771;18.625.954;-14.961.832;-0.06591797;0.043945312;0.86328124;0
343.511.468;-22.671.756;-0.08396947;-0.057861328;0.043701172;0.873291;0
336.641.232;0.9847328;-0.32061068;-0.06518555;0.04321289;0.8569336;0
3.076.336;18.473.282;-0.114503816;-0.06640625;0.040527344;0.8642578;0
32.442.748;19.389.314;-0.389312984;-0.06738281;0.045898436;0.8588867;0
31.450.382;15.648.855;-0.10687023;-0.06665039;0.045166016;0.86572264;0
30.305.342;32.900.762;-0.244274816;-0.06665039;0.044921876;0.8718262;0
29.312.978;64.656.488;-0.6870229;-0.064208984;0.04272461;0.873291;0
35.114.504;-0.519084;-0.259542;-0.072509768;0.0397949216;0.8652344;0
3.076.336;179.389.316;-0.17557252;-0.061035156;0.041992188;0.8691406;0
32.442.748;2.259.542;-0.4351145;-0.06518555;0.03491211;0.86694332;0
33.435.114;21.603.052;-0.16793894;-0.060546876;0.040527344;0.86376952;0
3.091.603;2.572.519;-0.4351145;-0.06225586;0.045898436;0.8666992;0
31.603.052;27.175.572;-0.343511468;-0.05493164;0.042236328;0.8623047;0
30.305.342;270.229;-0.21374046;-0.056396484;0.043945312;0.86694332;0
3.183.206;40.916.032;-0.4274809;-0.06616211;0.045166016;0.8574219;0
3.221.374;0.7633588;-0.244274816;-0.0617675768;0.043945312;0.8691406;0
32.442.748;19.770.992;-0.10687023;-0.051513672;0.045654296;0.85302732;0
31.450.382;31.755.726;-0.3816794;-0.06323242;0.0461425784;0.8588867;0
31.984.732;24.961.832;-0.32824428;-0.05908203;0.038085936;0.8654785;0
33.282.442;22.442.748;-0.35114504;-0.06323242;0.0461425784;0.86206056;0
32.519.084;51.297.708;-0.473282468;-0.06591797;0.031982422;0.8552246;0
3.129.771;0.366412232;-0.13740458;-0.05810547;0.04296875;0.88012696;0
32.290.078;0.1908397;-0.27480916;-0.05053711;0.0476074216;0.8652344;0
3.221.374;356.488.536;-0.54198476;-0.06518555;0.041015624;0.86865232;0
30.458.016;2.648.855;-0.366412232;-0.0637207;0.042236328;0.87719732;0
329.771;02.00;-0.35877864;-0.05883789;0.041503908;0.8676758;0
31.984.732;27.709.922;-0.343511468;-0.061279296;0.0390625;0.86279292;0
32.366.412;20.839.694;-0.259542;-0.064941408;0.041992188;0.85717776;0
31.603.052;339.694.668;-0.610687;-0.06274414;0.0397949216;0.8720703;0
3.076.336;3.038.168;-0.32824428;-0.0617675768;0.04638672;0.8618164;0
32.442.748;28.625.954;-0.33587788;-0.068603512;0.040527344;0.86987304;0
30.839.694;49.007.636;-0.610687;-0.064453124;0.04321289;0.85791016;0
31.221.372;31.526.718;-0.229007632;-0.060302736;0.03955078;0.8625488;0
32.290.078;2.908.397;-0.28244276;-0.06225586;0.041503908;0.86694332;0
30.839.694;16.717.557;-0.015267176;-0.057128908;0.041259764;0.85961912;0
30.610.688;2.961.832;-0.229007632;-0.05908203;0.040771484;0.867431632;0
3.167.939;27.862.596;0.10687023;-0.059326172;0.046875;0.87231448;0
3.167.939;356.488.536;-0.3740458;-0.057128908;0.050048828;0.85961912;0
3.312.977;0.3816794;-0.3740458;-0.0617675768;0.044189452;0.869384768;0
33.435.114;38.244.274;-0.183206116;-0.051757812;0.037109376;0.86083984;0
32.671.756;11.755.725;-0.17557252;-0.057128908;0.041259764;0.8684082;0
32.290.078;0.65648852;-0.3816794;-0.05029297;0.044433592;0.871582032;0
33.587.788;-23.740.458;-0.03816794;-0.051757812;0.03857422;0.85791016;0
27.251.908;69.465.648;-0.465648868;-0.07080078;0.04345703;0.8708496;0
28.473.282;18.503.816;-0.9694657;-0.059570312;0.048095704;0.8532715;0
31.450.382;14.122.137;-0.129771;-0.016357422;0.043945312;0.8144531;0
3.740.458;-11.755.725;0.54198476;-0.05517578;0.041503908;0.864501936;0
33.282.442;0.3740458;-0.465648868;-0.06982422;0.043945312;0.8666992;0
30.152.672;33.816.792;-0.3816794;-0.051513672;0.041259764;0.855468736;0
10.320.611;8.496.183;-3.816.794;-0.010498047;0.030761718;0.815917936;1
69.694.652;66.412.216;18.473.282;-0.056640624;0.079833984;0.83984376;1
1.061.832;761.832.036;-3.335.878;-0.009033203;0.07324219;0.9621582;1
43.587.784;-37.633.588;-1.870.229;-0.17407226;0.08666992;0.867431632;1
-29.541.984;389.312.984;10.793.893;-0.115478516;0.12182617;0.8105469;1
-13.969.465;7.076.336;1.619.084;0.05883789;0.06665039;0.8251953;1
12.572.519;1.648.855;0.60305348;0.168701168;0.041748048;0.95874024;1
10.854.961;-0.99236643;-1.891.603;0.05493164;0.06982422;0.8005371;1
44.351.144;8.328.244;-13.297.709;-0.18139648;0.037841796;0.8376465;1
10.679.389;54.274.808;8.763.359;-0.175292976;0.1496582;0.7507324;1
-66.412.216;42.137.404;18.206.106;-0.06933594;0.07763672;0.8605957;1
-36.183.208;57.709.924;8.053.435;0.11621094;0.052978516;0.9555664;1
0.53435116;-3.908.397;-9.251.908;0.07543945;0.03100586;0.9160156;1
75.725.192;-31.145.038;-2.406.107;-0.024169922;0.05834961;0.81469732;1
9.007.633;52.290.076;-4.587.786;-0.214111332;0.08227539;0.8696289;1
-11.030.535;42.442.748;9.854.961;-0.15576172;0.095458984;0.8852539;1
-15.366.412;35.114.504;15.709.924;-0.010253906;0.005126953;0.86083984;1
0.07633588;59.465.648;47.557.252;0.13183594;0.01171875;0.9741211;1
37.175.572;-5.374.046;-13.969.465;0.10058594;0.006591797;0.8947754;1
1.259.542;7.442.748;-22.114.504;-0.03515625;0.034179688;0.85595704;1
24.503.818;10.312.977;-62.137.404;-0.2253418;0.033447264;0.8894043;1
-9.106.871;63.129.772;13.122.137;-0.15307617;0.04272461;0.8947754;1
2.778.626;18.954.198;18.404.582;-0.00048828124;0.004638672;0.832031236;1
14.885.496;-39.923.664;21.984.732;0.10107422;0.015136719;0.961181632;1
6.259.542;-389.312.984;-1.757.252;0.032714844;0.005859375;0.9614258;1
35.038.168;-0.8778626;-2.208.397;-0.110839836;0.023925782;0.80859376;1
54.732.824;43.129.772;0.10687023;-0.20141602;-0.0126953128;0.88305668;1
-2.308.397;-80.992.368;21.793.894;-0.05810547;-0.045410156;0.9995117;1
54.732.824;790.076.336;17.503.816;0.15820312;-0.04711914;0.9001465;1
22.908.398;12.251.908;-6.816.794;0.14501953;-0.013671875;0.84716796;1
70.916.032;2.053.435;-2.293.893;0.0014648438;0.0061035156;0.8129883;1
12.992.367;13.068.703;-10.312.977;-0.1496582;0.037353516;0.75634768;1
-74.656.488;-40.229.008;6.816.794;-0.171875;0.07836914;0.6586914;1
-9.694.656;-0.4427481;24.656.488;-0.08325195;0.036865236;0.8574219;1
14.603.053;5.778.626;16.267.176;0.08911133;0.0034179688;0.92041016;1
-35.114.504;-6.038.168;-11.267.176;0.049560548;-0.0075683592;0.9094238;1
10.374.045;-2.259.542;-18.351.144;-0.0017089844;0.020751954;0.871582032;1
28.778.628;0.83206104;-9.923.664;-0.24023438;0.029052734;0.9655762;1
-18.656.488;75.648.856;54.274.808;-0.08544922;0.020507812;0.8117676;1
-0.870229;-0.091603052;23.099.238;0.010009766;0.04321289;0.7788086;1
10.870.229;13.282.443;3.427.481;0.14770508;-0.020996094;0.9182129;1
64.198.476;-54.580.156;-2.261.832;0.099609376;0.020996094;0.81884768;1
7.885.496;11.893.129;-23.671.754;-0.040039064;-0.040283204;0.76831052;1
20.358.778;-48.702.292;10.633.588;-0.24267578;0.111328132;0.71362308;1
-48.778.624;-66.946.564;27.740.458;-0.091552732;-0.006591797;0.885498064;1
0.9312977;5.068.702;1.221.374;0.199218752;-0.037597656;0.996582032;1
14.893.129;-0.3053435;-24.793.894;0.1105957;-0.018554688;0.8391113;1
70.916.032;10.114.504;-27.625.954;-0.10546875;0.0031738282;0.85180664;1
0.78625952;-14.274.809;10.030.535;-0.21118164;0.059570312;0.7807617;1
-36.793.892;53.511.452;28.328.246;-0.02734375;-0.06689453;0.92407224;1
10.992.366;10.305.344;14.015.267;0.19580078;-0.064697268;10.083.008;1
17.030.534;49.541.984;-19.183.206;0.091308592;0.036621092;0.8491211;1
3.091.603;22.824.428;-22.977.098;-0.033691408;0.018066406;0.857666;1
679.389.336;-0.9847328;-64.351.144;-0.2397461;-0.0031738282;0.9272461;1
12.236.641;5.366.412;122.595.416;-0.1394043;0.044677736;0.7915039;1
-11.465.649;3.931.298;15.435.115;0.004638672;0.05834961;0.8989258;1
19.564.886;13.877.863;679.389.336;0.13793946;0.064697268;0.9399414;1
41.221.376;-8.183.207;-15.465.649;0.083496092;0.06298828;0.9147949;1
-20.458.016;-0.389312984;-21.030.534;0.023925782;0.026367188;0.74194332;1
-14.114.504;10.473.283;-17.847.328;-0.2109375;-0.011230469;0.8635254;1
56.488.548;8.328.244;10.694.656;-0.14550781;0.05517578;0.8461914;1
-0.32824428;-1.540.458;18.015.266;-0.05834961;0.040771484;0.90356448;1
12.488.549;12.816.793;11.938.931;0.12646484;-0.0026855468;0.97314456;1
-45.114.504;-3.961.832;-16.946.566;0.107666016;0.0026855468;0.885498064;1
9.358.779;-0.60305348;-22.946.566;-0.001953125;0.048828124;0.8305664;1
-0.099236648;12.00;-1.419.084;-0.23413086;0.019042968;0.88671876;1
-7.152.672;-179.389.316;1.912.977;-0.23242188;0.06591797;0.8779297;1
-8.458.015;-42.290.076;2.487.023;0.020996094;-0.020263672;0.6569824;1
17.015.266;17.549.618;15.549.619;0.1237793;0.026611328;10.178.223;1
50.458.016;-23.664.122;-13.938.931;0.08886719;0.016601562;0.93359376;1
0.29007636;-58.702.292;-32.458.016;0.0068359376;0.0053710936;0.8625488;1
385.496.184;147.786.252;-20.694.656;-0.175537108;-0.011962891;0.888916;1
-28.778.628;5.671.756;8.687.023;-0.183105468;0.06762695;0.7644043;1
9.648.855;-2.961.832;25.854.962;-0.103271484;0.035888672;0.8930664;1
-6.038.168;60.305.344;17.992.366;0.087402344;0.033203124;0.93847656;1
40.152.676;-34.198.472;-30.610.688;0.11621094;0.048828124;0.87060544;1
16.755.726;0.396946584;-12.534.351;0.0234375;0.017333984;0.86572264;1
32.442.748;71.221.376;-20.274.808;-0.16601562;0.041503908;0.8618164;1
-14.961.832;-2.946.565;1.648.855;-0.21362304;0.067871096;0.797851568;1
0.732824436;79.389.316;22.091.602;-0.0053710936;-0.02734375;0.89282224;1
12.526.717;-62.061.068;14.458.015;0.09643555;0.0053710936;0.84350584;1
10.603.053;0.396946584;-64.198.476;0.091552732;0.005859375;0.9248047;1
62.442.748;42.824.424;-19.633.586;0.017333984;-0.0017089844;0.8779297;1
-44.351.144;10.725.191;-18.946.566;-0.17822266;0.005859375;0.8317871;1
-107.404.584;17.099.236;12.961.832;-0.15991211;0.038085936;0.7907715;1
16.152.672;1.480.916;3.351.145;-0.07836914;-0.02758789;0.9802246;1
-19.290.078;6.145.038;65.114.504;0.0637207;0.00390625;0.9316406;1
48.778.624;-16.213.742;-23.740.458;0.056884764;0.0146484368;0.8588867;1
45.496.184;-17.709.924;-11.564.885;0.040527344;0.020263672;0.8183594;1
11.282.443;12.519.084;-4.076.336;-0.12646484;-0.012451172;0.891601536;1
-5.854.962;-0.419847336;4.374.046;-0.080566408;0.044921876;0.8066406;1
721.374.036;6.374.046;15.358.779;-0.051513672;0.10229492;0.8120117;1
5.633.588;0.9160305;-11.832.061;0.1352539;0.017333984;0.9038086;1
134.198.472;0.4351145;-11.832.061;0.064941408;0.05029297;0.8703613;1
45.267.176;59.160.304;-20.328.246;-0.07788086;0.022705078;0.7976074;1
37.557.252;-6.221.374;2.091.603;-0.198730468;0.0925293;0.77783203;1
-8.206.107;-0.7251908;19.343.512;-0.072753908;0.03491211;0.9030762;1
30.839.694;-2.221.374;11.343.512;0.11279297;0.030273438;0.8544922;1
-10.534.351;-32.366.412;-14.541.985;0.14868164;0.033935548;0.8876953;1
880.916;71.984.732;-24.076.336;-0.0146484368;0.036132812;0.7963867;1
-0.6259542;16.793.894;-13.229.008;-0.26489258;0.024658204;0.9609375;1
-0.3053435;2.664.122;24.541.984;-0.15429688;-0.0034179688;0.8613281;1
-8.137.404;12.282.443;21.030.534;0.0390625;-0.09008789;0.92871096;1
17.152.672;18.137.406;11.572.519;0.10498047;0.030761718;0.9165039;1
56.564.884;-37.480.916;-9.022.901;0.103515624;-0.010498047;0.84594728;1
11.938.931;6.625.954;-18.419.848;0.005126953;0.061279296;0.8383789;1
9.053.435;18.091.602;-15.977.099;-0.22558594;0.014160156;0.86328124;1
-4.664.122;-44.580.156;726.717.536;-0.16723633;0.075927736;0.6623535;1
-154.198.468;-710.687;15.564.885;-0.048095704;-0.0009765625;0.9370117;1
20.816.794;13.847.328;17.526.718;0.0146484368;0.017822266;0.8786621;1
0.045801528;-47.175.576;0.465648868;0.13574219;-0.008056641;0.8864746;1
58.015.264;-31.984.732;-18.580.152;0.076416016;0.033203124;0.8725586;1
2.664.122;70.916.032;-23.503.816;-0.07299805;-0.00390625;0.8417969;1
13.236.641;14.885.496;-9.167.939;-0.2319336;-0.032958984;0.83569336;1
-27.480.916;-29.694.658;10.625.955;-0.198486332;0.014404297;0.78027348;1
38.396.948;170.229;155.801.532;-0.076171868;0.048583984;0.8457031;1
670.229;0.58778624;9.839.695;0.036865236;0.0026855468;0.907714832;1
-1.870.229;-43.129.772;-610.687;0.10473633;0.044921876;0.8417969;1
10.106.871;-6.374.046;-15.793.893;-0.03491211;0.04272461;0.8757324;1
-0.9160305;9.152.672;-102.595.416;-0.13330078;-0.013916016;0.84277348;1
26.030.534;53.816.796;9.503.817;-0.16577148;0.08666992;0.76782224;1
-7.923.664;-47.480.916;21.755.726;-0.02319336;-0.016601562;0.913818336;1
56.946.564;9.610.687;13.160.305;0.12841797;0.004638672;0.92163084;1
56.106.872;-0.77099232;-11.442.748;0.08251953;0.018066406;0.9416504;1
27.480.916;-23.587.788;-22.656.488;-0.0126953128;0.03881836;0.8708496;1
47.480.916;13.954.199;-15.290.076;-0.1274414;0.0146484368;0.78222652;1
21.221.372;-13.435.115;56.106.872;-0.190917968;0.057617188;0.82055668;1
-2.778.626;-117.404.584;23.824.426;-0.048583984;0.00024414064;0.91503908;1
-0.5114504;41.679.388;12.877.863;0.07324219;0.064453124;0.931884736;1
2.610.687;-0.458015268;-29.312.978;0.10546875;0.025634766;0.9135742;1
-10.992.366;-18.625.954;-21.007.634;0.08178711;0.00048828124;0.83740232;1
13.763.359;145.801.532;-10.450.381;-0.17333984;-0.04321289;0.9145508;1
-46.106.872;721.374.036;13.732.824;-0.14257812;0.032714844;0.8132324;1
-729.007.636;10.977.099;15.007.633;-0.0021972656;-0.012207031;0.91430664;1
2.480.916;-71.984.732;36.183.208;0.1340332;0.0041503908;0.880615232;1
779.389.336;-0.183206116;-15.427.481;0.078125;-0.0031738282;0.93310544;1
1.059.542;11.534.351;-19.664.122;-0.029541016;0.00048828124;0.84350584;1
1.221.374;13.206.106;-40.076.336;-0.24023438;-0.041503908;0.9255371;1
-94.198.472;62.442.748;175.572.516;-0.13305664;-0.015380859;0.9140625;1
0.396946584;0.35114504;1.906.107;0.026855468;-0.030761718;0.8515625;1
14.343.512;54.961.832;21.908.398;0.1652832;-0.018066406;0.9370117;1
70.534.352;-7.961.832;-142.595.432;0.05126953;0.007080078;0.8659668;1
18.007.634;12.374.045;-1.625.191;-0.029541016;0.0253906252;0.77856448;1
6.183.206;45.801.524;0.6183206;-0.20507812;0.02709961;0.8095703;1
-69.923.668;35.114.504;25.358.778;-0.018066406;-0.043701172;0.860351536;1
47.862.596;13.152.672;12.412.213;0.15039062;-0.07714844;0.90844728;1
42.900.764;48.015.264;-10.755.725;0.10424805;-0.013427734;0.931884736;1
11.396.947;-13.664.122;-23.114.504;-0.041748048;0.009277344;0.8491211;1
30.152.672;9.587.787;-73.053.436;-0.198730468;-0.020751954;0.876709;1
-11.396.947;8.458.015;17.847.328;-0.13598633;-0.011962891;0.8540039;1
0.8549618;559.542;181.603.052;-0.03466797;-0.022216796;0.9025879;1
9.229.008;-0.396946584;-0.015267176;0.12817383;-0.026855468;0.96191408;1
838.168;-980.916;-19.770.992;0.05883789;0.008300781;0.83569336;1
13.969.466;-32.519.084;-25.564.886;-0.05102539;0.035888672;0.8388672;1
32.900.762;11.458.015;-8.702.291;-0.24389648;00.00;0.8757324;1
-14.427.481;69.694.652;13.541.985;-0.183593744;0.03491211;0.7780762;1
1.480.916;12.038.168;25.732.824;-0.10791016;0.067871096;0.878417968;1
-380.916.032;31.603.052;60.534.352;0.12036133;0.018798828;0.95532224;1
14.961.832;2.038.168;-13.954.199;0.103027348;-0.010009766;0.95092776;1
24.580.152;-26.717.558;-23.900.762;0.010253906;-0.012207031;0.8503418;1
-50.458.016;-0.5648855;-13.664.123;-0.176513668;-0.009033203;0.885498064;1
678.625.968;61.374.044;12.977.099;-0.176269532;0.044189452;0.8105469;1
-55.801.524;49.007.636;17.030.534;-0.028076172;-0.05419922;0.86279292;1
-0.229007632;12.290.076;1.019.084;0.08666992;-0.025146484;0.9680176;1
10.946.565;2.206.107;-8.992.367;0.072265624;0.004638672;0.9328613;1
10.488.549;-15.419.847;-18.534.352;-0.00024414064;0.03466797;0.86499024;1
-44.274.808;3.053.435;-18.435.114;-0.16088867;0.0043945312;0.87060544;1
17.564.886;60.534.352;61.297.708;-0.214843736;0.03515625;0.7583008;1
-12.183.207;-20.458.016;26.671.754;-0.06689453;-0.006591797;0.8737793;1
17.633.588;13.908.397;20.343.512;0.03955078;-0.0041503908;0.9147949;1
9.083.969;171.755.732;-8.770.992;0.11352539;-0.03515625;0.925781264;1
15.885.496;-24.961.832;-24.358.778;0.04296875;0.013916016;0.80566408;1
-185.496.184;-55.114.504;-22.564.886;-0.13305664;0.0063476564;0.851318336;1
-11.450.381;8.038.168;4.114.504;-0.15209961;0.05908203;0.7536621;1
-6.885.496;32.748.092;20.549.618;-0.06542969;0.008544922;0.892334;1
171.603.052;10.053.435;21.961.832;0.0146484368;0.04345703;0.8588867;1
-45.419.844;-50.992.364;-49.847.324;0.09863281;0.0048828124;0.90405272;1
-14.045.801;-11.229.008;-19.877.862;0.06616211;0.014404297;0.894531264;1
16.00;8.931.297;-16.374.046;-0.05859375;0.029296875;0.8093262;1
102.213.748;3.687.023;2.038.168;-0.23461914;0.04736328;0.7648926;1
-57.175.576;26.335.878;20.671.754;-0.040039064;-0.030029296;0.7907715;1
4.145.038;25.801.528;19.465.648;0.07324219;0.008544922;10.112.305;1
31.450.382;0.90076332;-8.496.183;0.14770508;0.0043945312;0.832031236;1
-20.076.336;4.221.374;-20.770.992;-0.033203124;0.0007324219;0.9975586;1
-2.946.565;370.992.368;-15.885.496;-0.18823242;-0.012939453;0.85302732;1
24.503.818;9.969.465;11.923.664;-0.14990234;0.012451172;0.8005371;1
-0.366412232;13.854.961;18.076.336;-0.012207031;-0.05859375;0.9724121;1
35.801.528;2.687.023;2.167.939;0.16577148;0.01171875;0.8508301;1
75.038.168;-11.175.572;-14.870.229;0.10131836;0.016113282;0.79052732;1
9.679.389;9.534.351;-18.0;-0.1105957;-0.0087890624;0.992431632;1
878.626;8.038.168;-6.076.336;-0.26000976;0.03100586;0.8823242;1
10.358.779;43.816.796;26.885.496;-0.10986328;0.013183594;0.7512207;1
-10.496.183;725.190.836;11.946.565;0.056152344;0.028076172;0.920166;1
0.9541985;-52.671.756;-75.267.176;0.08520508;-0.04663086;0.95043944;1
-10.992.366;-0.6793893;-19.091.602;0.041503908;-0.0253906252;0.8708496;1
0.7099237;52.061.068;-15.129.771;-0.12646484;-0.03149414;0.826416;1
0.35877864;12.564.885;18.587.786;-0.07324219;0.024169922;0.91625976;1
2.335.878;-240.458;20.625.954;-0.006591797;-0.022460938;0.9394531;1
-40.458.016;15.496.184;3.946.565;0.1772461;-0.03149414;0.880615232;1
39.007.632;-31.221.372;-16.267.176;0.13916016;-0.026367188;0.85961912;1
6.725.191;6.366.412;-23.931.298;0.017089844;-0.030517578;0.858398464;1
-11.984.733;8.183.207;-42.290.076;-0.22094726;-0.028808594;0.7976074;1
3.038.168;10.167.939;1.867.939;-0.104003908;-0.028564454;0.8544922;1
-9.938.931;21.908.398;1.061.832;0.060791016;-0.044189452;0.88183592;1
119.007.632;43.969.464;21.908.398;0.14135742;-0.078125;0.9902344;1
17.213.742;-74.885.496;-14.335.877;0.012451172;-0.04345703;0.92822264;1
339.694.668;-64.580.156;-19.961.832;0.00048828124;0.033447264;0.7470703;1
-0.8167939;689.313;-759.542;-0.16601562;-0.036621092;0.811035136;1
-181.603.052;7.625.954;19.007.634;-0.13745117;0.06298828;0.7800293;1
18.152.672;6.068.702;224.427.484;-0.005126953;-0.0461425784;0.8625488;1
-40.076.336;-45.419.844;75.114.504;0.14135742;0.014404297;0.873291;1
64.580.156;-3.778.626;-74.885.496;0.061035156;-0.045654296;0.9411621;1
10.824.428;-29.694.658;-16.847.328;0.012207031;-0.04663086;0.8996582;1
79.465.648;59.160.304;-9.435.115;-0.061035156;-0.0126953128;0.78125;1
12.137.405;-0.3816794;26.793.892;-0.1394043;0.0476074216;0.7561035;1
-3.870.229;5.740.458;16.343.512;-0.051513672;-0.0012207031;0.8647461;1
-44.656.488;35.038.168;14.946.565;0.056884764;-0.026855468;0.88427736;1
51.297.708;5.854.962;-10.839.695;0.107421868;-0.072021484;0.9440918;1
8.389.313;-68.015.268;-18.114.504;0.06982422;0.0017089844;0.85498052;1
0.26717558;0.7099237;-18.152.672;-0.020996094;0.009277344;0.8066406;1
0.32061068;55.801.524;-1.559.542;-0.14453125;-0.029541016;0.8676758;1
34.961.832;43.511.452;12.755.725;-0.15625;0.019042968;0.9165039;1
-717.557.236;-0.9847328;15.389.313;0.044433592;-0.020751954;0.9123535;1
6.114.504;63.511.452;24.122.138;0.176757808;-0.040283204;0.907959;1
79.847.332;-56.793.896;-1.780.916;0.07470703;-0.00048828124;0.8400879;1
10.541.985;40.152.676;-18.709.922;-0.06616211;0.021728516;0.82250976;1
-2.038.168;16.259.542;-8.931.297;-0.19604492;-0.017333984;0.86157224;1
-43.511.452;0.99236643;11.885.496;-0.12670898;-0.018310546;0.8996582;1
7.633.588;745.801.536;18.412.214;0.026367188;-0.029541016;0.936035136;1
-12.290.076;-3.259.542;1.091.603;0.1574707;-0.03149414;0.85717776;1
8.152.672;-67.175.576;-10.931.297;0.0769043;-0.015136719;0.90722652;1
40.458.016;0.343511468;-15.572.519;-0.0061035156;-0.017089844;0.876464832;1
18.625.954;9.328.244;-510.687;-0.15063476;0.005859375;0.87475584;1
-0.35114504;9.511.451;12.496.183;-0.071777348;-0.005126953;0.8293457;1
2.076.336;28.778.628;1.861.832;0.017089844;0.022216796;0.8835449;1
47.633.584;5.480.916;-0.129771;0.1171875;-0.03149414;0.88378904;1
2.259.542;-49.923.664;-16.152.672;0.0766601536;-0.013427734;0.8769531;1
20.152.672;31.145.038;-20.114.504;-0.032714844;-0.022216796;0.8251953;1
10.702.291;57.099.236;-1.129.771;-0.16772461;-0.008056641;0.8613281;1
770.229;70.229.008;20.992.366;0.059326172;-0.02709961;0.890625;1
-25.496.182;2.427.481;34.961.832;0.1628418;-0.061279296;0.8979492;1
21.603.052;-65.343.512;-14.603.053;0.10424805;-0.037109376;0.8601074;1
270.229;29.541.984;-18.595.418;-0.059326172;-0.06274414;0.9025879;1
78.015.268;9.320.611;-17.633.588;-0.18725586;0.001953125;0.81689452;1
14.351.145;15.419.847;15.694.656;-0.08129883;-0.05908203;0.8391113;1
79.083.968;21.526.718;171.603.052;0.049072264;-0.05126953;0.920898464;1
0.8854962;-2.870.229;-2.648.855;0.10864258;-0.048095704;0.9055176;1
16.717.557;-1.259.542;-19.305.344;0.043701172;-0.0043945312;0.80444332;1
6.152.672;0.67175576;-13.572.519;-0.11303711;-0.049072264;0.889648464;1
-0.53435116;76.030.536;717.557.236;-0.10546875;0.010986328;0.8166504;1
-0.66412216;7.335.878;16.152.672;0.0053710936;-0.03930664;0.9272461;1
-0.061068704;-2.465.649;67.175.576;0.13720703;-0.051513672;0.904785136;1
54.580.156;-674.809.136;-55.801.524;0.09082031;-0.03930664;0.9091797;1
-23.816.792;-32.671.756;-16.641.222;0.018554688;-0.0383300768;0.8840332;1
774.809.136;8.183.207;-12.541.985;-0.11206055;-0.06542969;0.9243164;1
11.549.619;7.068.702;24.503.818;-0.12475586;-0.022216796;0.7609863;1
-18.396.946;27.862.596;11.244.275;-0.12207031;-0.061035156;0.9160156;1
32.824.428;0.10687023;7.145.038;0.119384768;-0.037353516;0.873291;1
52.519.084;-39.770.992;-690.076.336;0.0949707;-0.041748048;0.88842776;1
14.885.496;31.068.702;-17.358.778;-0.004638672;-0.028320312;0.9484863;1
-32.137.404;0.366412232;-144.198.468;-0.13769531;-0.09448242;0.8544922;1
37.251.908;11.450.381;37.251.908;-0.15576172;-0.043701172;0.81640624;1
-61.679.388;105.801.528;17.541.984;-0.07446289;-0.0126953128;0.83496092;1
683.206.136;67.557.256;15.290.076;0.052490236;-0.033935548;0.9309082;1
3.259.542;-32.137.404;-1.480.916;0.099853512;-0.053222656;0.909667936;1
44.198.476;-46.106.872;-13.694.656;0.059326172;-0.037841796;0.9277344;1
13.374.045;8.916.031;-14.870.229;-0.026855468;-0.048828124;0.8754883;1
5.480.916;49.389.316;-46.030.536;-0.18603516;-0.04248047;0.84350584;1
-15.343.511;61.374.044;9.274.809;-0.07421875;-0.022460938;0.8666992;1
15.267.176;0.10687023;9.442.748;-0.009765625;-0.044433592;0.9416504;1
29.847.328;8.549.619;8.572.519;0.043945312;-0.049316408;0.9526367;1
-16.717.557;-66.946.564;-47.938.932;0.072509768;-0.057861328;0.86083984;1
5.374.046;52.442.748;-17.267.176;0.014160156;-0.045898436;0.8688965;1
8.175.572;8.732.824;-12.450.381;-0.10131836;-0.04272461;0.8034668;1
53.893.128;55.114.504;59.007.636;-0.13696289;-0.075683592;0.828125;1
682.442.736;37.557.252;16.725.192;-0.09375;-0.04638672;0.9387207;1
-10.335.877;16.580.152;25.038.168;0.013427734;-0.05444336;0.80444332;1
-21.068.702;-72.290.077;9.236.641;0.15576172;-0.040527344;0.9404297;1
367.175.584;-22.748.092;-11.427.481;0.1159668;-0.05859375;0.85302732;1
55.648.856;1.259.542;-17.122.138;-0.05834961;-0.07788086;0.826416;1
50.305.344;9.045.801;-6.328.244;-0.18579102;-0.059814452;0.8425293;1
7.442.748;59.694.656;16.519.083;-0.1303711;-0.028564454;0.89624024;1
-8.946.565;31.068.702;16.778.626;0.026367188;-0.051757812;0.8725586;1
48.015.264;16.183.206;30.687.022;0.12036133;-0.04321289;0.876709;1
65.343.512;-0.366412232;-12.679.389;0.068359376;-0.03857422;0.8869629;1
4.854.962;559.542;-15.435.115;-0.099365232;-0.07836914;0.88134768;1
10.045.801;6.816.794;4.854.962;-0.09692383;-0.012451172;0.711181636;1
6.931.298;60.610.684;13.549.619;-0.059570312;-0.043945312;0.8833008;1
0.1908397;-27.633.588;11.435.115;0.045410156;-0.02709961;0.916748064;1
77.633.584;0.2519084;-2.816.794;0.06640625;-0.038085936;0.89941408;1
62.748.092;0.6183206;-13.122.137;-0.010009766;-0.019042968;0.87402344;1
5.374.046;9.511.451;-69.541.984;-0.114746092;-0.024658204;0.8486328;1
24.732.824;75.038.168;69.465.648;-0.07446289;-0.00366210936;0.8654785;1
-25.419.848;65.038.168;10.122.137;-0.029052734;-0.016113282;0.8847656;1
-26.717.558;39.923.664;716.793.836;0.104003908;-0.044433592;0.980468736;1
69.541.984;-0.8396947;-9.312.977;0.035888672;-0.03564453;0.92163084;1
66.488.548;8.770.992;-15.954.199;-0.059814452;-0.013183594;0.8017578;1
23.282.442;2.519.084;-9.641.221;-0.19677734;0.0017089844;0.83374024;1
23.587.788;-340.458;14.488.549;-0.091796872;-0.01953125;0.88623048;1
-47.480.916;16.183.206;15.702.291;0.028076172;-0.05834961;0.89941408;1
385.496.184;12.442.748;-35.419.848;0.0715332;-0.06640625;0.97143552;1
-0.343511468;-52.519.084;-214.809.168;-0.013183594;-0.03515625;0.9345703;1
32.748.092;2.870.229;-14.473.283;-0.09692383;-0.056884764;0.8515625;1
8.961.832;719.084;12.519.084;-0.12646484;-0.040771484;0.8574219;1
-51.984.736;8.641.221;7.335.878;-0.11230469;-0.0007324219;0.8083496;1
74.503.816;7.847.328;150.992.368;-0.05419922;-0.024902344;0.91259768;1
-43.969.464;15.519.084;10.984.733;0.028076172;-0.014404297;0.92041016;1
3.259.542;-0.8854962;0.488549632;0.09667969;-0.0476074216;0.9091797;1
61.221.376;-15.267.176;-1.619.084;0.0461425784;-0.029052734;0.9020996;1
62.519.084;63.587.784;-21.358.778;-0.049804688;-0.036865236;0.769531236;1
10.610.687;185.496.184;-559.542;-0.22021484;-0.04345703;0.873535168;1
-8.541.985;9.251.908;18.137.406;-0.052734376;-0.04638672;0.8796387;1
-14.274.809;22.442.748;13.366.412;-0.014892578;0.017822266;0.922851568;1
59.847.324;50.458.016;-21.984.732;0.08496094;-0.088134768;0.9243164;1
33.816.792;-8.076.336;-14.396.947;0.08325195;-0.06567383;0.894531264;1
758.015.236;0.022900764;-19.335.878;0.0063476564;-0.013671875;0.83984376;1
9.603.053;13.450.381;-610.687;-0.16772461;-0.09790039;0.8510742;1
2.778.626;3.946.565;14.106.871;-0.14770508;-0.00732421868;0.864501936;1
-11.832.061;-27.251.908;18.229.008;-0.03930664;-0.031982422;0.85913084;1
6.152.672;7.740.458;9.725.191;0.095703128;-0.056396484;0.89697268;1
419.084;-55.801.524;-8.0;0.08959961;-0.07519531;0.88916016;1
23.206.108;10.229.008;-18.931.298;0.018798828;-0.043945312;0.86279292;1
489.313;674.809.136;-11.587.787;-0.12524414;-0.06933594;0.80249024;1
3.480.916;44.351.144;9.145.039;-0.14282226;-0.036132812;0.898681664;1
-8.068.703;12.038.168;16.312.976;0.024902344;-0.04736328;0.9238281;1
343.511.468;-3.221.374;39.847.328;0.107177736;-0.07714844;0.9321289;1
6.625.954;-21.374.046;-10.977.099;0.06347656;-0.044433592;0.9030762;1
4.557.252;15.419.847;-1.761.832;-0.057617188;-0.04711914;0.88916016;1
47.633.584;11.396.947;-53.129.772;-0.16772461;-0.026123046;0.84765624;1
0.458015268;61.603.056;12.053.435;-0.10668945;-0.012939453;0.82788088;1
-32.290.078;54.351.144;10.916.031;0.024658204;-0.064453124;0.91748052;1
1.578.626;-0.14503818;76.030.536;0.08081055;-0.041259764;0.92041016;1
33.282.442;0.5954198;-12.320.611;0.049316408;-0.001953125;0.9277344;1
0.5038168;3.259.542;-17.656.488;-0.017822266;-0.009277344;0.7844238;1
770.992.368;100.992.368;-6.152.672;-0.16308594;-0.05126953;0.84814456;1
-27.251.908;25.038.168;15.946.565;0.01586914;-0.0214843736;0.84350584;1
31.755.726;1.778.626;-0.86259544;0.13647461;-0.029052734;0.8925781;1
9.236.641;-2.465.649;-18.610.688;0.057861328;0.017333984;0.832031236;1
-46.412.216;14.961.832;-17.603.054;-0.11816406;-0.032958984;0.8342285;1
49.541.984;754.198.436;-10.839.695;-0.13378906;-0.036376952;0.83374024;1
0.13740458;-3.778.626;14.114.504;-0.06591797;-0.037353516;0.8256836;1
-14.458.015;-0.33587788;8.687.023;0.043701172;-0.024902344;0.9406738;1
11.519.084;3.557.252;-28.396.948;0.07543945;-0.08886719;0.952148432;1
52.366.416;-65.267.176;-16.099.238;0.03149414;-0.018310546;0.8457031;1
-66.488.548;6.366.412;-16.007.634;-0.088378904;-0.060546876;0.792968768;1
07.00;-0.35877864;39.694.658;-0.11645508;-0.021240234;0.7548828;1
36.793.892;-10.320.611;152.213.744;-0.015625;-0.056152344;0.8520508;1
4.076.336;1.059.542;87.404.584;0.050048828;-0.01928711;0.91430664;1
13.358.779;-8.091.603;-6.145.038;0.07080078;-0.0625;0.9255371;1
40.534.352;70.534.352;-0.90076332;0.036376952;0.04711914;0.8742676;10
38.625.954;3.557.252;-0.259542;0.014160156;0.060546876;0.8815918;10
40.152.676;15.419.847;-0.007633588;0.018554688;0.0539550768;0.8742676;10
0.70229008;58.320.612;-0.870229;0.0214843736;0.049072264;0.89746092;10
4.114.504;-0.015267176;0.16030534;0.011474609;0.05126953;0.90234376;10
787.022.932;-59.770.992;-0.32824428;0.037353516;0.0539550768;0.8835449;10
57.099.236;23.435.114;0.8015267;0.07543945;0.08081055;0.79711912;10
-3.610.687;15.587.787;-34.885.496;0.046875;0.057861328;0.8334961;10
50.458.016;470.229;-0.5801527;-0.014892578;0.05053711;0.9580078;10
3.870.229;-13.290.076;-14.656.489;0.03881836;0.025634766;0.9343262;10
0.60305348;0.28244276;-20.992.368;0.06762695;0.09448242;0.7607422;10
-30.458.016;2.238.168;-768.702.268;0.0383300768;0.049804688;0.85058592;10
-0.648855;8.122.137;-169.465.652;-0.036621092;0.03857422;0.9333496;10
59.083.968;-42.748.092;-0.007633588;0.083496092;0.06542969;0.74975584;10
17.328.244;2.242.748;-31.755.726;0.008544922;0.05419922;0.8815918;10
14.122.137;10.625.955;-13.664.122;-0.03466797;0.04345703;0.96069336;10
377.099.232;-1.732.061;10.229.008;-0.020263672;0.031982422;0.97094728;10
9.916.031;-12.106.871;0.221374052;0.067871096;0.057617188;0.8276367;10
-0.870229;22.564.886;-20.839.694;0.03955078;0.076171868;0.8249512;10
-0.3740458;17.351.144;0.15267176;-0.024658204;0.0390625;0.9338379;10
7.221.374;-20.076.336;15.343.511;-0.021240234;0.036376952;0.90649416;10
13.977.099;-1.238.168;10.152.671;0.07348633;0.07128906;0.77905272;10
-56.870.228;22.671.754;-45.114.504;0.049560548;0.061523436;0.7922363;10
-31.526.718;2.129.771;-49.160.304;-0.012207031;0.015380859;0.9055176;10
77.557.256;-21.496.184;-1.648.855;0.044677736;0.05859375;0.7973633;10
10.877.863;16.824.426;-0.33587788;0.08251953;0.071777348;0.7182617;10
-0.29007636;28.862.594;-5.335.878;-0.024414062;0.059570312;0.8522949;10
-0.8549618;6.412.214;-42.748.092;-0.1015625;0.0253906252;10.200.195;10
12.473.283;-3.538.168;33.435.114;-0.026123046;0.044921876;0.93359376;10
5.816.794;0.5496183;20.305.342;0.060302736;0.08886719;0.75268552;10
-940.458;24.778.626;-45.343.512;0.044433592;0.049560548;0.80371096;10
2.259.542;15.893.129;-28.854.962;-0.104003908;0.00024414064;11.047.363;10
10.290.076;-23.435.114;14.580.153;-0.010986328;0.022949218;0.89086916;10
7.374.046;758.015.236;0.5038168;0.08862305;0.08203125;0.7038574;10
-12.320.611;27.404.582;-5.847.328;0.014892578;0.049072264;0.8234863;10
0.793893168;9.656.488;-0.70229008;-0.1262207;0.0034179688;11.269.531;10
570.229;-314.427.484;35.801.528;-0.026611328;0.036621092;0.90649416;10
1.138.168;-0.5801527;0.229007632;0.10913086;0.05859375;0.6899414;10
-0.977099264;20.755.726;-2.519.084;0.030517578;0.049072264;0.8305664;10
77.557.256;18.053.434;18.091.604;-0.068115232;-0.017822266;10.634.766;10
8.541.985;-2.619.084;27.557.252;-0.06542969;0.0078125;0.9929199;10
-14.732.824;-11.267.176;-27.633.588;0.06298828;0.07104492;0.7421875;10
-25.038.168;3.087.023;-41.603.056;0.032470704;0.050048828;0.820068336;10
14.916.031;-25.847.328;391.603.068;-0.056640624;-0.0012207031;10.146.484;10
52.671.756;10.748.092;23.587.788;0.083740232;0.06591797;0.748535136;10
-4.847.328;26.923.664;-789.313;0.02758789;0.042236328;0.8286133;10
0.8396947;11.732.824;0.3816794;-0.092041016;0.016357422;10.356.445;10
25.969.466;-28.977.098;6.068.702;0.0078125;0.009521484;0.9016113;10
53.893.128;10.374.045;-0.6259542;0.10864258;0.09448242;0.72314456;10
-19.503.816;30.755.726;-13.267.176;0.0075683592;0.03149414;0.8156738;10
-14.503.817;25.419.848;-7.442.748;-0.0793457;-0.02709961;0.9770508;10
19.335.878;-16.259.542;12.519.084;-0.08959961;-0.036621092;10.078.125;10
-47.633.584;12.992.367;-0.13740458;0.08325195;0.052001952;0.733398436;10
-12.541.985;31.717.558;-75.648.856;0.018066406;0.028564454;0.7192383;10
10.320.611;3.870.229;-43.587.784;-0.14550781;-0.044433592;11.767.578;10
120.992.368;-37.198.476;2.870.229;-0.034179688;-0.006591797;0.8703613;10
3.076.336;12.137.405;-0.03816794;0.055908204;0.048339844;0.7590332;10
-107.786.252;2.370.229;-47.175.576;0.036132812;0.026611328;0.8293457;10
8.671.756;14.679.389;0.3740458;-0.061035156;-0.02368164;0.98217776;10
15.625.955;-24.259.542;43.435.116;-0.07324219;-0.0009765625;0.9980469;10
13.770.992;-135.801.532;178.625.952;0.07373047;0.05810547;0.7819824;10
-60.076.336;14.770.992;-2.335.878;0.068359376;0.06762695;0.7507324;10
-57.175.576;27.694.656;-42.366.416;-0.026367188;0.05883789;0.861084;10
31.068.702;8.503.817;-0.4427481;-0.12597656;-0.0007324219;10.493.164;10
10.870.229;-30.885.496;1.832.061;-0.013916016;0.023925782;0.8547363;10
-43.053.436;45.648.856;-14.427.481;0.08496094;0.07397461;0.7126465;10
-15.114.504;19.534.352;-77.709.923;0.0068359376;0.03466797;0.86865232;10
75.496.184;-0.045801528;0.099236648;-0.079833984;-0.013183594;10.654.297;10
16.412.214;-30.961.832;470.229;0.0014648438;0.028320312;0.8808594;10
0.6793893;12.137.404;10.534.351;0.11816406;0.095703128;0.7121582;10
-10.694.656;274.427.484;-51.603.056;-0.015136719;0.02758789;0.8991699;10
-0.244274816;49.007.636;-4.366.412;-0.09643555;-0.015625;10.939.942;10
-3.221.374;-3.570.229;-25.648.854;0.018554688;0.045410156;0.8574219;10
18.755.726;5.854.962;4.923.664;0.12866211;0.083496092;0.7277832;10
-15.961.832;4.048.855;-38.778.628;0.03955078;0.041503908;0.85009768;10
-9.427.481;17.343.512;-21.221.372;-0.0625;-0.018310546;0.96362308;10
30.984.734;-26.328.246;49.694.656;-0.044677736;0.01171875;0.9326172;10
8.755.725;-1.929.771;-18.091.604;0.08911133;0.051513672;5,642361111;10
1.961.832;20.946.566;15.038.168;0.12036133;0.07397461;0.71875;10
-13.053.435;3.951.145;-56.946.564;0.026123046;0.005859375;0.8391113;10
-169.465.652;45.343.512;-172.519.084;-0.1484375;-0.052734376;1.050.293;10
1.893.893;-34.984.732;37.251.908;-0.03564453;0.0253906252;0.82373048;10
61.603.056;13.442.748;-0.03816794;0.14208984;0.072265624;0.640625;10
-6.740.458;4.415.267;-7.061.069;-0.0014648438;0.059570312;0.8093262;10
-3.961.832;15.480.916;-3.091.603;-0.1845703;0.0021972656;10.805.664;10
11.671.756;-40.572.516;26.259.542;-0.075927736;-0.024658204;0.9147949;10
84.198.472;-9.244.275;-10.610.686;0.0546875;0.09716797;0.78222652;10
-64.198.476;2.791.603;-3.038.168;0.017822266;0.040527344;0.8588867;10
-21.091.602;22.274.808;-8.511.451;-0.15991211;-0.022949218;0.99316408;10
16.152.672;-30.496.184;5.221.374;-0.0922851568;-0.02734375;0.99121096;10
16.259.542;-19.992.366;0.061068704;0.06616211;0.09887695;0.6887207;10
-38.396.948;25.664.122;0.3816794;0.044677736;0.068847656;0.7702637;10
-26.595.418;32.068.704;-10.175.572;-0.08959961;0.016601562;0.88012696;10
29.167.938;-14.557.252;94.198.472;-0.14770508;-0.047851564;10.341.797;10
12.541.985;-29.221.374;17.709.924;0.041503908;0.05859375;0.81933592;10
49.083.968;268.015.268;19.694.656;0.03173828;0.049072264;0.8901367;10
-12.496.183;23.038.168;-4.625.954;-0.106933592;0.028808594;10.083.008;10
17.458.016;-31.274.808;410.687;-0.092041016;-0.029541016;10.627.442;10
13.175.572;-21.717.558;42.137.404;0.03149414;0.06591797;0.7746582;10
42.748.092;10.664.123;0.007633588;0.103515624;0.08520508;0.6574707;10
-9.320.611;26.206.106;-1.961.832;-0.020019532;0.02734375;0.8691406;10
-12.480.916;23.587.786;-3.221.374;-0.07836914;0.018798828;0.99975584;10
16.404.582;-24.656.488;53.816.796;-0.13452148;0.0053710936;10.126.953;10
74.274.808;-35.908.396;-15.267.176;0.015625;0.03491211;0.87402344;10
9.015.267;-0.8091603;716.793.836;0.14428711;0.10180664;0.57910156;10
-940.458;4.585.496;-480.916;0.036376952;0.004638672;0.79345704;10
-20.503.816;24.419.848;-55.496.184;-0.08569336;-0.021240234;0.9572754;10
18.022.902;-23.625.954;26.717.558;-0.09887695;-0.0554199232;10.585.938;10
225.190.832;-8.755.725;172.519.084;0.09423828;0.07324219;0.6694336;10
-13.030.535;26.091.602;-391.603.068;0.06738281;0.057373048;0.7331543;10
-8.374.045;3.338.168;-63.587.784;-0.18530274;-0.0461425784;10.771.484;10
72.366.416;-1.038.168;-25.801.528;-0.19604492;-0.08544922;11.477.051;10
20.267.176;-5.123.664;40.076.336;0.021240234;-0.007080078;0.74731448;10
6.335.878;30.687.022;-13.664.122;0.13720703;0.10180664;0.60791016;10
-14.267.176;43.045.804;-6.038.168;0.00732421868;0.037353516;0.7663574;10
49.847.324;16.206.106;14.580.153;-0.12158203;-0.068603512;10.634.766;10
21.122.138;-35.984.732;10.839.695;-0.08691406;-0.01928711;10.046.387;10
10.030.535;-1.757.252;0.7099237;0.12841797;0.06298828;0.68725584;10
-15.343.511;2.587.023;-2.389.313;0.09692383;0.044677736;0.7937012;10
-22.290.078;49.755.724;-13.664.123;-0.052490236;0.057128908;0.864501936;10
-13.587.786;15.412.213;-0.1908397;-0.15454102;-0.05126953;0.9748535;10
21.534.352;-43.160.304;7.335.878;-0.030273438;-0.06347656;0.88916016;10
27.534.352;-17.099.238;-13.740.458;0.033447264;0.13378906;0.810791;10
-18.465.648;3.917.557;2.312.977;0.13574219;0.09887695;0.55322268;10
-3.051.145;46.435.116;-9.984.733;-0.19335938;-0.0214843736;10.244.141;10
17.335.878;9.061.069;36.793.892;-0.14624024;-0.087402344;10.197.754;10
20.595.418;-45.572.516;0.27480916;-0.087646488;-0.047851564;0.9250488;10
14.717.557;-17.587.786;-17.480.916;0.10839844;0.07373047;0.68774416;10
-23.076.336;27.977.098;16.793.894;0.012451172;0.024902344;0.8796387;10
-13.374.045;17.946.566;-41.297.708;-0.15991211;-0.0075683592;11.315.918;10
66.412.216;-13.603.053;-0.015267176;-0.12988281;-0.091308592;11.196.289;10
33.480.916;-14.480.916;35.038.168;0.049316408;-0.031982422;0.84643552;10
21.145.038;76.412.216;-15.801.526;0.111083984;0.0952148432;0.5148926;10
-0.16793894;33.671.756;-0.10687023;-0.07495117;-0.02368164;10.864.258;10
73.969.464;-10.297.709;-19.007.634;-0.18237304;-0.118896488;12.036.133;10
2.612.977;-11.572.519;0.343511468;-0.0053710936;-0.036376952;0.95043944;10
9.068.703;-2.221.374;-0.4351145;0.04663086;0.076416016;0.59594724;10
-23.549.618;8.358.779;-0.35114504;-0.0146484368;-0.0009765625;0.8171387;10
-15.709.924;15.030.535;-29.541.984;-0.057128908;-0.10571289;10.153.808;10
32.687.024;-59.694.656;-19.236.641;-0.034179688;-0.08544922;0.9645996;10
27.725.192;-8.648.855;-13.282.443;0.028808594;0.05883789;0.6948242;10
-22.984.734;70.229.008;-0.870229;00.00;0.010253906;0.7854004;10
-22.351.144;13.045.801;23.740.458;-0.049560548;-0.09326172;0.9663086;10
20.145.038;-5.076.336;-2.793.893;-0.0703125;-0.0949707;10.698.242;10
359.771;-3.351.145;32.824.428;-0.0053710936;0.01977539;0.74609376;10
-32.137.404;50.610.684;-2.610.687;0.021972656;0.1328125;0.57250976;10
-32.923.664;33.053.436;17.328.244;-0.018066406;0.0034179688;0.79663084;10
30.671.754;0.86259544;180.152.668;-0.07739258;-0.08642578;10.656.738;10
45.755.724;-9.625.955;4.885.496;-0.07421875;0.0637207;0.7548828;10
0.221374052;-65.725.192;-31.526.718;0.052001952;0.16674804;0.5300293;10
-19.648.856;52.366.416;21.450.382;-0.024658204;0.07446289;0.8293457;10
-24.977.098;18.992.366;0.5038168;-0.06591797;-0.057617188;0.9621582;10
-19.694.656;25.038.168;-0.6870229;-0.11035156;-0.140625;12.460.938;10
44.030.532;-1.159.542;3.351.145;-0.08227539;-0.044433592;0.945068336;10
32.183.204;-741.984.736;1.832.061;0.00048828124;0.07861328;0.690917936;10
-12.152.672;10.664.123;-0.8091603;0.0703125;0.1784668;0.5422363;10
-358.854.968;22.335.878;-22.442.748;-0.053710936;0.020263672;0.8918457;10
-9.702.291;13.488.549;-10.152.671;-0.12719726;-0.09716797;10.529.785;10
34.045.804;-13.335.877;31.450.382;-0.075927736;-0.0690918;0.9892578;10
24.908.398;-1.708.397;44.274.808;0.030761718;0.050048828;0.74975584;10
-22.076.336;12.916.031;-4.961.832;0.041015624;0.057373048;0.70996092;10
-2.793.893;22.526.718;-0.4961832;-0.08569336;-0.051513672;0.9680176;10
37.633.588;-58.396.944;-29.923.664;-0.16772461;-0.118652344;11.696.777;10
31.984.734;-72.290.077;59.847.324;-0.0793457;-0.018554688;0.8442383;10
12.977.099;-115.801.528;-5.412.214;0.044921876;0.11303711;0.6220703;10
-205.572.516;15.793.893;15.496.184;0.0056152344;0.032958984;0.7758789;10
-30.687.024;21.404.582;-0.78625952;-0.07055664;-0.09423828;0.9963379;10
2.025.191;-961.832;-11.145.039;-0.06665039;-0.11230469;109.375;10
33.129.772;-10.458.015;1.908.397;0.00390625;-0.033691408;0.7956543;10
8.083.969;-11.374.046;-45.648.856;0.099121096;0.107421868;0.5366211;10
-12.427.481;17.770.992;25.648.854;0.0253906252;0.028808594;0.8076172;10
-33.587.788;12.435.115;-17.557.252;-0.10644531;-0.16674804;10.839.844;10
26.282.442;-29.389.312;10.763.359;-0.061523436;-0.099853512;10.632.324;10
34.870.228;-10.557.252;0.9389313;-0.01171875;0.028808594;0.78125;10
-57.099.236;8.061.069;0.08396947;0.06713867;0.110839836;0.5986328;10
-2.032.061;15.526.717;-15.496.184;-0.028564454;-0.0056152344;0.845459;10
-11.480.916;71.374.045;0.64122132;-0.08691406;-0.11694336;11.079.102;10
22.404.582;-120.992.368;-46.106.872;-0.052490236;-0.032714844;0.89282224;10
25.412.214;57.862.596;3.129.771;0.040527344;0.048828124;0.67871096;10
-2.006.107;9.801.527;-11.374.046;00.00;0.05102539;0.8041992;10
-22.709.922;16.091.602;-35.419.848;-0.03173828;-0.080078132;0.9458008;10
14.687.023;-16.183.206;-31.526.718;-0.0383300768;-0.09692383;10.458.984;10
27.778.626;-2.221.374;-0.71755732;-0.017333984;-0.010498047;0.7915039;10
-67.557.256;3.664.122;-0.83206104;0.068847656;0.11791992;0.5732422;10
-16.114.504;17.908.398;49.465.648;-0.04296875;-0.041259764;0.90405272;10
-54.351.144;3.740.458;-14.274.809;-0.08105469;-0.13476562;11.279.297;10
28.580.152;-13.366.412;-15.801.526;0.00732421868;0.021240234;0.7392578;10
0.29007636;9.396.947;13.587.786;0.08935547;0.11206055;0.5734863;10
-120.992.368;24.267.176;-42.290.076;0.032714844;0.01928711;0.88500976;10
14.580.153;-480.916;2.557.252;-0.0068359376;-0.12231445;11.477.051;10
24.412.214;-12.328.244;30.229.008;-0.0146484368;-0.053710936;0.78930664;10
2.206.107;11.458.015;-28.015.268;0.049804688;0.0949707;0.65478516;10
-18.717.558;940.458;2.908.397;0.016357422;-0.00732421868;0.8725586;10
731.297.736;-0.045801528;0.64122132;-0.06542969;-0.11621094;11.916.504;10
27.549.618;-7.923.664;48.396.944;0.06518555;-0.059814452;0.9482422;10
-27.480.916;-72.442.744;-18.091.604;0.08325195;0.09814453;0.5966797;10
-17.274.808;34.450.384;-0.33587788;0.00732421868;0.0253906252;0.813964836;10
-9.847.328;42.900.764;0.480916032;-0.044433592;-0.059570312;0.9711914;10
22.656.488;-9.290.076;26.412.212;0.0063476564;-0.044677736;0.9238281;10
12.687.023;0.648855;-0.8244275;0.07788086;0.07739258;0.6418457;10
-16.053.434;5.923.664;-6.442.748;0.048583984;0.0107421868;0.8005371;10
-18.374.046;231.984.732;56.488.548;-0.02709961;-0.08276367;0.9848633;10
729.007.636;-0.78625952;-22.671.756;-0.05078125;-0.13476562;11.450.195;10
30.625.954;-9.198.473;-13.969.466;-0.013916016;-0.03955078;0.84814456;10
20.610.688;-0.6259542;-3.053.435;0.061035156;0.07397461;0.6047363;10
-22.137.406;-37.175.572;-62.137.404;0.02368164;0.00390625;0.84375;10
-18.473.282;25.496.184;0.8854962;-0.053466796;-0.033447264;10.361.328;10
53.511.452;-1.738.168;-11.832.061;-0.06347656;-0.13989258;11.379.394;10
21.335.878;-8.541.985;-67.557.256;-0.008056641;-0.014892578;0.8129883;10
1.040.458;0.8778626;-67.099.236;0.079833984;0.04345703;0.62109376;10
-18.564.886;21.755.726;-13.740.458;0.037109376;0.0107421868;0.7902832;10
-17.633.586;1.923.664;-24.122.138;-0.045898436;-0.10839844;10.600.586;10
28.404.582;-11.656.488;3.908.397;-0.0007324219;-0.11401367;10.490.723;10
1.842.748;-1.661.832;-60.305.344;0.018798828;0.028076172;0.7092285;10
-15.801.526;14.351.145;19.312.977;0.057617188;0.057861328;0.5932617;10
-20.114.504;15.549.619;27.328.244;0.028076172;-0.007080078;0.89208984;10
26.259.542;38.473.282;23.053.436;-0.060302736;-0.16064453;12.207.031;10
27.160.306;-13.969.465;10.076.336;-0.04296875;-0.0397949216;0.9189453;10
12.877.863;-11.183.207;-5.038.168;0.075683592;0.0766601536;0.5654297;10
-16.442.749;21.091.602;1.908.397;0.03857422;0.014892578;0.84350584;10
-12.519.084;16.282.442;3.053.435;-0.018066406;-0.059326172;1.027.832;10
1.478.626;-16.824.426;11.603.054;-0.0390625;-0.064697268;10.656.738;10
22.671.754;-8.763.359;27.480.916;0.03955078;0.026611328;0.7871094;10
57.251.908;754.198.436;-13.282.443;0.07885742;0.095947268;0.57543948;10
-25.664.122;27.595.418;-54.732.824;0.00366210936;0.012939453;0.8312988;10
9.916.031;41.603.056;0.64122132;-0.078125;-0.09057617;11.062.012;10
28.687.024;-9.816.793;7.816.794;-0.040527344;-0.0390625;0.873535168;10
1.559.542;-8.152.672;-23.740.458;0.033447264;0.07006836;0.6687012;10
-214.427.484;20.022.902;-1.778.626;0.009277344;-0.0007324219;0.8066406;10
-12.572.519;5.221.374;18.091.604;-0.050048828;-0.08154297;10.620.117;10
25.007.634;-5.076.336;0.4961832;-0.016357422;-0.05517578;0.97680664;10
25.687.024;-23.587.788;37.862.596;0.042236328;0.056396484;0.6816406;10
-268.015.268;380.916.032;-690.076.336;0.0390625;0.099853512;0.69750976;10
-17.954.198;147.404.568;22.290.078;-0.03173828;-0.034423828;0.9458008;10
1.712.977;-380.916.032;17.328.244;-0.029296875;-0.0769043;11.157.226;10
32.603.054;-5.412.214;18.625.954;0.03564453;0.0029296876;0.8100586;10
-59.083.968;3.427.481;-0.5954198;0.0554199232;0.08984375;0.681884736;10
-13.885.496;22.564.886;0.488549632;-0.005859375;0.015380859;0.78759768;10
1.910.687;-12.648.855;-0.099236648;-0.0539550768;-0.06201172;11.054.688;10
24.206.106;-8.648.855;-0.8015267;0.03125;0.009033203;0.7998047;10
-12.519.084;8.083.969;-470.229;0.072265624;0.0690918;0.6245117;10
-22.778.626;268.015.268;-4.259.542;0.045898436;-0.015380859;0.8469238;10
37.862.596;180.152.668;-0.2977099;-0.061279296;-0.13671875;12.399.902;10
2.391.603;-67.099.236;9.664.123;-0.05517578;-0.052001952;0.9133301;10
9.358.779;489.313;-2.091.603;0.05126953;0.07714844;0.58740232;10
-15.145.039;2.012.977;-13.740.458;-0.045410156;0.025634766;0.7651367;10
-16.946.566;59.770.992;-5.076.336;-0.07910156;-0.140625;11.279.297;10
2.461.832;-16.412.214;57.633.584;-0.111083984;-0.055908204;0.9116211;10
5.152.672;0.28244276;-50.229.008;0.025878906;0.059326172;0.6323242;10
-15.679.389;67.099.236;-168.702.284;-0.009033203;0.005126953;0.84399416;10
-204.809.168;114.198.472;-8.053.435;-0.032226564;-0.075683592;0.9824219;10
24.335.878;-0.1908397;38.015.268;-0.023925782;-0.06274414;0.9733887;10
2.608.397;-60.152.676;16.259.542;-0.009521484;-0.02734375;0.78515624;10
-9.770.992;120.992.368;-59.007.636;0.0034179688;0.02709961;0.8269043;10
-225.572.516;26.259.542;0.5114504;-0.1015625;-0.07519531;10.830.078;10
20.549.618;-1.438.168;-0.473282468;-0.083984376;-0.07080078;10.683.594;10
24.412.214;-19.564.886;-3.793.893;0.026367188;0.004638672;0.8173828;10
14.129.771;43.511.452;0.90076332;0.05126953;0.06542969;0.60839844;10
-13.473.283;10.946.565;-0.9694657;-0.048583984;0.0078125;0.87060544;10
-178.396.944;1.742.748;-27.709.922;-0.052734376;-0.030761718;10.375.976;10
12.244.275;-43.435.116;1.648.855;-0.0690918;-0.05029297;10.021.973;10
2.691.603;-10.274.809;26.183.208;0.013183594;-0.008544922;0.81762696;10
5.885.496;6.480.916;-12.748.091;0.01953125;0.09887695;0.5876465;10
-14.954.199;231.603.052;22.442.748;-0.0476074216;0.016601562;0.8510742;10
-8.633.588;8.045.801;-341.221.368;-0.175781252;-0.16381836;12.402.344;10
1.910.687;-23.267.176;-2.442.748;-0.111816408;-0.07421875;0.97558592;10
24.541.984;-7.854.962;-30.839.694;-0.0031738282;0.0476074216;0.64624024;10
-11.198.473;8.129.771;-40.916.032;0.0063476564;0.037841796;0.70166016;10
-2.348.855;31.206.106;-30.458.016;-0.1027832;-0.08178711;0.9562988;10
10.267.176;-7.068.702;370.229;-0.119628904;-0.09326172;10.866.699;10
26.145.038;-8.061.069;1.021.374;-0.029785156;-0.072753908;0.8469238;10
13.755.725;-339.694.668;-2.816.794;-0.0043945312;0.0793457;0.6425781;10
-26.328.246;13.427.481;-9.465.649;-0.016113282;-0.0041503908;0.7902832;10
-41.297.708;25.954.198;2.129.771;-0.09423828;-0.10058594;0.9741211;10
11.725.191;-20.206.106;16.564.885;-0.064208984;-0.09887695;10.585.938;10
25.603.054;-10.129.771;0.60305348;0.0007324219;-0.026367188;5,642361111;10
-18.954.198;122.213.744;-44.885.496;-0.010498047;0.064453124;0.63720704;10
-23.366.414;2.210.687;-3.259.542;-0.04711914;-0.1105957;0.9267578;10
11.320.611;-8.206.107;-0.07633588;-0.052246092;-0.122802732;10.241.699;10
30.648.856;-12.229.008;0.54198476;0.049316408;-0.07348633;0.8496094;10
11.603.053;0.9847328;-69.465.648;0.05908203;0.0925293;0.63183592;10
-12.366.412;24.946.566;11.374.046;-0.0107421868;0.010498047;0.8041992;10
-181.603.052;8.923.664;58.778.624;-0.10229492;-0.109375;10.981.445;10
25.053.434;-9.343.512;-26.183.208;-0.061035156;-0.11035156;0.986084;10
20.213.742;-66.183.204;-0.9541985;0.025146484;0.037597656;0.6567383;10
-14.908.397;8.083.969;-180.152.668;0.011962891;-0.036621092;0.765625;10
-758.015.236;9.862.596;3.038.168;-0.07055664;-0.09326172;1.060.791;10
154.198.468;-1.219.084;-11.374.046;-0.040283204;-0.06225586;0.9772949;10
22.038.168;-72.824.424;-14.351.145;-0.0214843736;-0.001953125;0.7824707;10
-11.511.451;1.280.916;-21.450.382;-0.0078125;-0.0017089844;0.78564456;10
-11.145.039;15.175.572;-0.9847328;-0.08129883;-0.08642578;0.9824219;10
25.534.352;-16.198.473;4.152.672;-0.07910156;-0.08886719;10.532.226;10
25.053.434;-11.137.404;-27.557.252;0.03857422;0.018310546;0.7036133;10
-9.312.977;1.742.748;0.03816794;0.025878906;0.10522461;0.6386719;10
-2.593.893;8.908.397;0.55725192;-0.01171875;-0.049316408;0.976318336;10
24.404.582;-79.541.984;0.57251908;-0.024414062;-0.0859375;10.463.867;10
27.183.206;-17.664.122;-0.6870229;0.030273438;0.016113282;0.7451172;10
-7.152.672;13.083.969;3.465.649;0.0461425784;0.0690918;0.68237304;10
-24.473.282;18.625.954;21.908.398;0.049316408;-0.017333984;0.867431632;10
-41.221.376;37.862.596;-23.969.466;-0.057617188;-0.15576172;11.713.867;10
34.076.336;-17.076.336;13.664.122;-0.010498047;-0.040283204;0.9370117;10
26.946.566;-5.412.214;-27.175.572;0.06616211;0.059570312;0.68115232;10
-221.603.052;18.175.574;26.335.878;0.03125;0.06738281;0.6972656;10
-3.091.603;12.030.535;-0.65648852;-0.004638672;-0.0715332;10.544.434;10
10.534.351;-0.03816794;21.068.702;-0.005126953;-0.14135742;12.067.871;10
30.908.398;-14.122.137;2.183.206;-0.0024414062;-0.035888672;0.87890624;10
16.977.098;13.358.779;-24.961.832;0.0769043;0.053710936;0.66845704;10
-16.633.586;16.648.856;2.427.481;0.048339844;0.023925782;0.701416;10
-30.015.266;14.312.977;-33.435.114;-0.00366210936;-0.052734376;10.529.785;10
19.122.138;-10.526.717;-0.03816794;0.020019532;-0.12133789;11.240.234;10
26.396.946;-1.180.916;-3.908.397;0.034179688;-0.020751954;0.80859376;10
10.068.703;4.412.214;-0.77099232;0.10058594;0.08691406;0.5776367;10
-16.816.794;11.297.709;2.778.626;0.048583984;-0.00048828124;0.92163084;10
-726.717.536;218.396.944;20.458.016;-0.022216796;-0.049072264;10.375.976;10
18.091.602;-9.763.359;-30.229.008;0.03125;-0.061035156;0.9929199;10
245.572.516;-13.969.466;-16.412.214;0.04321289;0.049804688;0.7043457;10
-191.603.052;12.374.045;-20.610.688;0.048095704;0.041748048;0.72509768;10
-15.832.061;22.496.184;40.610.684;-0.017822266;-0.06298828;0.9794922;10
7.885.496;-19.015.266;-1.610.687;-0.011962891;-0.087646488;11.411.133;10
21.885.496;0.3816794;-0.08396947;-0.0031738282;-0.0075683592;0.773681636;10
6.740.458;0.9541985;-11.221.374;0.12133789;0.10058594;0.52563476;10
-2.367.939;24.854.962;26.717.558;0.0871582;-0.0024414062;0.73583984;10
0.6335878;14.923.664;51.755.724;-0.00366210936;-0.13574219;11.330.566;10
21.641.222;-17.167.938;-14.427.481;-0.025878906;-0.0690918;10.070.801;10
3.108.397;-61.221.376;26.030.534;0.033203124;0.0539550768;0.6953125;10
-13.106.871;16.595.418;-20.610.688;0.084228516;0.11450195;0.5800781;10
-18.343.512;2.570.229;-0.2519084;-0.015380859;-0.0056152344;0.8754883;10
-24.198.472;761.832.036;-0.007633588;-0.05908203;-0.12548828;1.197.998;10
23.908.398;-9.839.695;44.351.144;0.00366210936;-0.013671875;0.83081052;10
-2.259.542;15.496.184;-4.412.214;0.07714844;0.115234376;0.5932617;10
-18.595.418;16.396.946;-12.824.427;0.048339844;0.017089844;0.7548828;10
-4.885.496;22.038.168;-0.3816794;-0.024169922;-0.15234375;11.750.488;10
29.862.594;-17.465.648;-52.061.068;0.02734375;-0.07714844;0.9111328;10
2.580.916;-17.885.496;0.5038168;0.0859375;0.07397461;0.6447754;10
-22.992.366;24.328.246;0.33587788;0.064453124;0.0053710936;0.7734375;10
-20.0;9.824.428;28.778.628;-0.0126953128;-0.09326172;10.991.211;10
17.992.366;-13.290.076;-3.442.748;0.013916016;-0.06225586;10.070.801;10
29.290.078;-8.748.092;79.923.668;0.060302736;0.036132812;0.735351536;10
-17.221.374;16.076.336;-15.038.168;0.08984375;0.07739258;0.59399416;10
-17.0;2.861.832;-12.900.764;-0.013671875;-0.02319336;6,510416667;10
64.274.808;-9.015.267;-14.503.816;0.0026855468;-0.103759768;11.455.078;10
2.757.252;-11.183.207;06.00;0.14013672;-0.036132812;0.840332064;10
-1.389.313;137.786.252;0.091603052;0.118652344;0.099121096;0.5761719;10
-23.145.038;21.358.778;-22.366.412;0.036376952;-0.03466797;0.9416504;10
8.648.855;-9.015.267;-0.57251908;-0.0053710936;-0.10083008;11.118.164;10
28.030.534;-5.671.756;21.603.052;0.08276367;-0.04736328;0.892334;10
