time,gyro_x,gyro_y,gyro_z,accel_x,accel_y,accel_z,temp
0.00,10.320611,8.496183,-3.816794,-0.010498047,0.030761718,0.815917936,30.0358816
0.00,6.9694652,6.6412216,1.8473282,-0.056640624,0.079833984,0.83984376,30.0358816
0.00,10.61832,7.61832036,-3.335878,-0.009033203,0.07324219,0.9621582,29.988822
1.00,4.3587784,-3.7633588,-1.870229,-0.17407226,0.08666992,0.867431632,30.0358816
1.00,-2.9541984,3.89312984,10.793893,-0.115478516,0.12182617,0.8105469,30.0358816
1.00,-13.969465,7.076336,16.19084,0.05883789,0.06665039,0.8251953,30.13
1.00,12.572519,1.648855,0.60305348,0.168701168,0.041748048,0.95874024,30.0358816
1.00,10.854961,-0.99236643,-18.91603,0.05493164,0.06982422,0.8005371,30.08294
1.00,4.4351144,8.328244,-13.297709,-0.18139648,0.037841796,0.8376465,29.941762
1.00,10.679389,5.4274808,8.763359,-0.175292976,0.1496582,0.7507324,30.13
2.00,-6.6412216,4.2137404,18.206106,-0.06933594,0.07763672,0.8605957,30.0358816
2.00,-3.6183208,5.7709924,8.053435,0.11621094,0.052978516,0.9555664,30.0358816
2.00,0.53435116,-3.908397,-9.251908,0.07543945,0.03100586,0.9160156,29.941762
2.00,7.5725192,-3.1145038,-24.06107,-0.024169922,0.05834961,0.81469732,30.08294
2.00,9.007633,5.2290076,-4.587786,-0.214111332,0.08227539,0.8696289,30.08294
2.00,-11.030535,4.2442748,9.854961,-0.15576172,0.095458984,0.8852539,30.0358816
3.00,-15.366412,3.5114504,15.709924,-0.010253906,0.005126953,0.86083984,30.0358816
3.00,0.07633588,5.9465648,4.7557252,0.13183594,0.01171875,0.9741211,30.0358816
3.00,3.7175572,-5.374046,-13.969465,0.10058594,0.006591797,0.8947754,30.0358816
3.00,12.59542,7.442748,-22.114504,-0.03515625,0.034179688,0.85595704,30.0358816
3.00,2.4503818,10.312977,-6.2137404,-0.2253418,0.033447264,0.8894043,29.988822
3.00,-9.106871,6.3129772,13.122137,-0.15307617,0.04272461,0.8947754,29.941762
4.00,2.778626,18.954198,18.404582,-0.00048828124,0.004638672,0.832031236,29.988822
4.00,1.4885496,-3.9923664,2.1984732,0.10107422,0.015136719,0.961181632,30.0358816
4.00,6.259542,-3.89312984,-17.57252,0.032714844,0.005859375,0.9614258,30.0358816
4.00,3.5038168,-0.8778626,-22.08397,-0.110839836,0.023925782,0.80859376,29.941762
4.00,5.4732824,4.3129772,0.10687023,-0.20141602,-0.0126953128,0.88305668,30.0358816
4.00,-23.08397,-8.0992368,21.793894,-0.05810547,-0.045410156,0.9995117,30.08294
5.00,5.4732824,7.90076336,17.503816,0.15820312,-0.04711914,0.9001465,30.08294
5.00,22.908398,12.251908,-6.816794,0.14501953,-0.013671875,0.84716796,29.894704
5.00,7.0916032,2.053435,-22.93893,0.0014648438,0.0061035156,0.8129883,30.08294
5.00,12.992367,13.068703,-10.312977,-0.1496582,0.037353516,0.75634768,29.941762
5.00,-7.4656488,-4.0229008,6.816794,-0.171875,0.07836914,0.6586914,30.0358816
5.00,-9.694656,-0.4427481,24.656488,-0.08325195,0.036865236,0.8574219,29.894704
6.00,14.603053,5.778626,16.267176,0.08911133,0.0034179688,0.92041016,30.08294
6.00,-3.5114504,-6.038168,-11.267176,0.049560548,-0.0075683592,0.9094238,29.941762
6.00,10.374045,-2.259542,-18.351144,-0.0017089844,0.020751954,0.871582032,29.941762
6.00,2.8778628,0.83206104,-9.923664,-0.24023438,0.029052734,0.9655762,30.08294
6.00,-18.656488,7.5648856,5.4274808,-0.08544922,0.020507812,0.8117676,30.08294
6.00,-0.870229,-0.091603052,23.099238,0.010009766,0.04321289,0.7788086,29.988822
7.00,10.870229,1.3282443,3.427481,0.14770508,-0.020996094,0.9182129,29.988822
7.00,6.4198476,-5.4580156,-22.61832,0.099609376,0.020996094,0.81884768,30.0358816
7.00,7.885496,11.893129,-23.671754,-0.040039064,-0.040283204,0.76831052,30.13
7.00,20.358778,-4.8702292,10.633588,-0.24267578,0.111328132,0.71362308,30.13
7.00,-4.8778624,-6.6946564,27.740458,-0.091552732,-0.006591797,0.885498064,30.0358816
8.00,0.9312977,5.068702,12.21374,0.199218752,-0.037597656,0.996582032,30.0358816
8.00,14.893129,-0.3053435,-24.793894,0.1105957,-0.018554688,0.8391113,30.0358816
8.00,7.0916032,10.114504,-27.625954,-0.10546875,0.0031738282,0.85180664,29.988822
8.00,0.78625952,-1.4274809,10.030535,-0.21118164,0.059570312,0.7807617,30.0358816
8.00,-3.6793892,5.3511452,28.328246,-0.02734375,-0.06689453,0.92407224,29.988822
9.00,1.0992366,10.305344,14.015267,0.19580078,-0.064697268,1.0083008,30.0358816
9.00,17.030534,4.9541984,-19.183206,0.091308592,0.036621092,0.8491211,29.988822
9.00,3.091603,2.2824428,-22.977098,-0.033691408,0.018066406,0.857666,29.988822
9.00,6.79389336,-0.9847328,-6.4351144,-0.2397461,-0.0031738282,0.9272461,29.941762
9.00,12.236641,5.366412,12.2595416,-0.1394043,0.044677736,0.7915039,29.988822
9.00,-11.465649,3.931298,15.435115,0.004638672,0.05834961,0.8989258,30.0358816
10.00,19.564886,13.877863,6.79389336,0.13793946,0.064697268,0.9399414,29.988822
10.00,4.1221376,-8.183207,-15.465649,0.083496092,0.06298828,0.9147949,30.0358816
10.00,-2.0458016,-0.389312984,-21.030534,0.023925782,0.026367188,0.74194332,29.988822
10.00,-14.114504,10.473283,-17.847328,-0.2109375,-0.011230469,0.8635254,30.08294
10.00,5.6488548,8.328244,10.694656,-0.14550781,0.05517578,0.8461914,29.988822
10.00,-0.32824428,-15.40458,18.015266,-0.05834961,0.040771484,0.90356448,29.988822
10.00,12.488549,12.816793,11.938931,0.12646484,-0.0026855468,0.97314456,29.988822
11.00,-4.5114504,-3.961832,-16.946566,0.107666016,0.0026855468,0.885498064,30.08294
11.00,9.358779,-0.60305348,-22.946566,-0.001953125,0.048828124,0.8305664,29.941762
11.00,-0.099236648,12.0,-14.19084,-0.23413086,0.019042968,0.88671876,30.0358816
11.00,-7.152672,-1.79389316,19.12977,-0.23242188,0.06591797,0.8779297,29.941762
11.00,-8.458015,-4.2290076,24.87023,0.020996094,-0.020263672,0.6569824,29.941762
11.00,17.015266,17.549618,15.549619,0.1237793,0.026611328,1.0178223,30.0358816
12.00,5.0458016,-2.3664122,-13.938931,0.08886719,0.016601562,0.93359376,29.988822
12.00,0.29007636,-5.8702292,-32.458016,0.0068359376,0.0053710936,0.8625488,30.08294
12.00,3.85496184,14.7786252,-20.694656,-0.175537108,-0.011962891,0.888916,29.988822
12.00,-2.8778628,5.671756,8.687023,-0.183105468,0.06762695,0.7644043,30.08294
12.00,9.648855,-2.961832,25.854962,-0.103271484,0.035888672,0.8930664,29.847644
12.00,-6.038168,6.0305344,17.992366,0.087402344,0.033203124,0.93847656,29.988822
13.00,4.0152676,-3.4198472,-3.0610688,0.11621094,0.048828124,0.87060544,30.08294
13.00,16.755726,0.396946584,-12.534351,0.0234375,0.017333984,0.86572264,29.988822
13.00,3.2442748,7.1221376,-20.274808,-0.16601562,0.041503908,0.8618164,29.988822
13.00,-1.4961832,-2.946565,1.648855,-0.21362304,0.067871096,0.797851568,30.0358816
13.00,0.732824436,7.9389316,22.091602,-0.0053710936,-0.02734375,0.89282224,30.0358816
13.00,12.526717,-6.2061068,14.458015,0.09643555,0.0053710936,0.84350584,29.988822
14.00,10.603053,0.396946584,-6.4198476,0.091552732,0.005859375,0.9248047,29.988822
14.00,6.2442748,4.2824424,-19.633586,0.017333984,-0.0017089844,0.8779297,29.988822
14.00,-4.4351144,10.725191,-18.946566,-0.17822266,0.005859375,0.8317871,29.988822
14.00,-10.7404584,1.7099236,12.961832,-0.15991211,0.038085936,0.7907715,30.0358816
14.00,16.152672,14.80916,33.51145,-0.07836914,-0.02758789,0.9802246,30.08294
15.00,-19.290078,6.145038,6.5114504,0.0637207,0.00390625,0.9316406,30.0358816
15.00,4.8778624,-16.213742,-2.3740458,0.056884764,0.0146484368,0.8588867,29.988822
15.00,4.5496184,-1.7709924,-11.564885,0.040527344,0.020263672,0.8183594,30.0358816
15.00,11.282443,1.2519084,-4.076336,-0.12646484,-0.012451172,0.891601536,30.0358816
15.00,-5.854962,-0.419847336,4.374046,-0.080566408,0.044921876,0.8066406,30.0358816
15.00,7.21374036,6.374046,15.358779,-0.051513672,0.10229492,0.8120117,29.941762
16.00,5.633588,0.9160305,-1.1832061,0.1352539,0.017333984,0.9038086,30.0358816
16.00,13.4198472,0.4351145,-11.832061,0.064941408,0.05029297,0.8703613,30.08294
16.00,4.5267176,5.9160304,-20.328246,-0.07788086,0.022705078,0.7976074,30.08294
16.00,3.7557252,-6.221374,2.091603,-0.198730468,0.0925293,0.77783203,29.988822
16.00,-8.206107,-0.7251908,19.343512,-0.072753908,0.03491211,0.9030762,29.988822
16.00,3.0839694,-2.221374,11.343512,0.11279297,0.030273438,0.8544922,30.08294
17.00,-1.0534351,-3.2366412,-14.541985,0.14868164,0.033935548,0.8876953,29.988822
17.00,8.80916,7.1984732,-24.076336,-0.0146484368,0.036132812,0.7963867,30.0358816
17.00,-0.6259542,1.6793894,-13.229008,-0.26489258,0.024658204,0.9609375,30.0358816
17.00,-0.3053435,2.664122,24.541984,-0.15429688,-0.0034179688,0.8613281,29.988822
17.00,-8.137404,12.282443,21.030534,0.0390625,-0.09008789,0.92871096,30.13
18.00,17.152672,18.137406,11.572519,0.10498047,0.030761718,0.9165039,29.988822
18.00,5.6564884,-3.7480916,-9.022901,0.103515624,-0.010498047,0.84594728,30.0358816
18.00,11.938931,6.625954,-18.419848,0.005126953,0.061279296,0.8383789,30.0358816
18.00,9.053435,18.091602,-15.977099,-0.22558594,0.014160156,0.86328124,30.08294
18.00,-4.664122,-4.4580156,7.26717536,-0.16723633,0.075927736,0.6623535,30.0358816
18.00,-15.4198468,-7.10687,15.564885,-0.048095704,-0.0009765625,0.9370117,29.988822
18.00,20.816794,13.847328,17.526718,0.0146484368,0.017822266,0.8786621,30.0358816
19.00,0.045801528,-4.7175576,0.465648868,0.13574219,-0.008056641,0.8864746,30.0358816
19.00,5.8015264,-3.1984732,-18.580152,0.076416016,0.033203124,0.8725586,30.13
19.00,2.664122,7.0916032,-23.503816,-0.07299805,-0.00390625,0.8417969,30.08294
19.00,13.236641,14.885496,-9.167939,-0.2319336,-0.032958984,0.83569336,30.0358816
19.00,-2.7480916,-2.9694658,10.625955,-0.198486332,0.014404297,0.78027348,29.941762
19.00,3.8396948,1.70229,15.5801532,-0.076171868,0.048583984,0.8457031,30.0358816
20.00,6.70229,0.58778624,9.839695,0.036865236,0.0026855468,0.907714832,30.08294
20.00,-1.870229,-4.3129772,-6.10687,0.10473633,0.044921876,0.8417969,30.08294
20.00,10.106871,-6.374046,-15.793893,-0.03491211,0.04272461,0.8757324,30.0358816
20.00,-0.9160305,9.152672,-10.2595416,-0.13330078,-0.013916016,0.84277348,29.988822
20.00,2.6030534,5.3816796,9.503817,-0.16577148,0.08666992,0.76782224,30.0358816
20.00,-7.923664,-4.7480916,21.755726,-0.02319336,-0.016601562,0.913818336,30.13
21.00,5.6946564,9.610687,13.160305,0.12841797,0.004638672,0.92163084,29.988822
21.00,5.6106872,-0.77099232,-11.442748,0.08251953,0.018066406,0.9416504,29.941762
21.00,2.7480916,-2.3587788,-22.656488,-0.0126953128,0.03881836,0.8708496,30.08294
21.00,4.7480916,13.954199,-15.290076,-0.1274414,0.0146484368,0.78222652,30.08294
21.00,2.1221372,-1.3435115,5.6106872,-0.190917968,0.057617188,0.82055668,30.0358816
21.00,-2.778626,-11.7404584,23.824426,-0.048583984,0.00024414064,0.91503908,30.0358816
22.00,-0.5114504,4.1679388,12.877863,0.07324219,0.064453124,0.931884736,30.0358816
22.00,2.610687,-0.458015268,-2.9312978,0.10546875,0.025634766,0.9135742,29.988822
22.00,-1.0992366,-1.8625954,-21.007634,0.08178711,0.00048828124,0.83740232,30.0358816
22.00,13.763359,14.5801532,-10.450381,-0.17333984,-0.04321289,0.9145508,30.0358816
22.00,-4.6106872,7.21374036,13.732824,-0.14257812,0.032714844,0.8132324,29.988822
22.00,-7.29007636,10.977099,15.007633,-0.0021972656,-0.012207031,0.91430664,29.988822
23.00,2.480916,-7.1984732,3.6183208,0.1340332,0.0041503908,0.880615232,29.894704
23.00,7.79389336,-0.183206116,-15.427481,0.078125,-0.0031738282,0.93310544,29.988822
23.00,10.59542,11.534351,-19.664122,-0.029541016,0.00048828124,0.84350584,29.988822
23.00,1.221374,1.3206106,-4.0076336,-0.24023438,-0.041503908,0.9255371,30.08294
23.00,-9.4198472,6.2442748,17.5572516,-0.13305664,-0.015380859,0.9140625,30.0358816
24.00,0.396946584,0.35114504,19.06107,0.026855468,-0.030761718,0.8515625,30.0358816
24.00,14.343512,5.4961832,2.1908398,0.1652832,-0.018066406,0.9370117,29.988822
24.00,7.0534352,-7.961832,-14.2595432,0.05126953,0.007080078,0.8659668,30.0358816
24.00,18.007634,12.374045,-16.25191,-0.029541016,0.0253906252,0.77856448,30.08294
24.00,6.183206,4.5801524,0.6183206,-0.20507812,0.02709961,0.8095703,29.988822
24.00,-6.9923668,3.5114504,25.358778,-0.018066406,-0.043701172,0.860351536,30.0358816
25.00,4.7862596,13.152672,12.412213,0.15039062,-0.07714844,0.90844728,29.988822
25.00,4.2900764,4.8015264,-10.755725,0.10424805,-0.013427734,0.931884736,30.0358816
25.00,11.396947,-1.3664122,-23.114504,-0.041748048,0.009277344,0.8491211,29.988822
25.00,3.0152672,9.587787,-7.3053436,-0.198730468,-0.020751954,0.876709,30.0358816
25.00,-11.396947,8.458015,17.847328,-0.13598633,-0.011962891,0.8540039,29.988822
26.00,0.8549618,5.59542,18.1603052,-0.03466797,-0.022216796,0.9025879,29.941762
26.00,9.229008,-0.396946584,-0.015267176,0.12817383,-0.026855468,0.96191408,29.988822
26.00,8.38168,-9.80916,-19.770992,0.05883789,0.008300781,0.83569336,30.0358816
26.00,1.3969466,-3.2519084,-25.564886,-0.05102539,0.035888672,0.8388672,30.0358816
26.00,3.2900762,11.458015,-8.702291,-0.24389648,0.0,0.8757324,30.0358816
26.00,-1.4427481,6.9694652,13.541985,-0.183593744,0.03491211,0.7780762,30.0358816
27.00,1.480916,12.038168,25.732824,-0.10791016,0.067871096,0.878417968,30.13
27.00,-3.80916032,3.1603052,6.0534352,0.12036133,0.018798828,0.95532224,30.0358816
27.00,14.961832,2.038168,-13.954199,0.103027348,-0.010009766,0.95092776,30.13
27.00,2.4580152,-2.6717558,-23.900762,0.010253906,-0.012207031,0.8503418,30.0358816
27.00,-5.0458016,-0.5648855,-13.664123,-0.176513668,-0.009033203,0.885498064,30.0358816
27.00,6.78625968,6.1374044,12.977099,-0.176269532,0.044189452,0.8105469,30.08294
28.00,-5.5801524,4.9007636,17.030534,-0.028076172,-0.05419922,0.86279292,30.08294
28.00,-0.229007632,12.290076,10.19084,0.08666992,-0.025146484,0.9680176,30.0358816
28.00,10.946565,2.206107,-8.992367,0.072265624,0.004638672,0.9328613,30.13
28.00,10.488549,-1.5419847,-18.534352,-0.00024414064,0.03466797,0.86499024,30.0358816
28.00,-4.4274808,3.053435,-18.435114,-0.16088867,0.0043945312,0.87060544,29.941762
28.00,17.564886,6.0534352,6.1297708,-0.214843736,0.03515625,0.7583008,30.08294
28.00,-12.183207,-2.0458016,26.671754,-0.06689453,-0.006591797,0.8737793,29.941762
29.00,1.7633588,13.908397,20.343512,0.03955078,-0.0041503908,0.9147949,30.0358816
29.00,9.083969,1.71755732,-8.770992,0.11352539,-0.03515625,0.925781264,30.0358816
29.00,15.885496,-2.4961832,-24.358778,0.04296875,0.013916016,0.80566408,29.988822
29.00,-1.85496184,-5.5114504,-22.564886,-0.13305664,0.0063476564,0.851318336,30.13
29.00,-1.1450381,8.038168,4.114504,-0.15209961,0.05908203,0.7536621,30.0358816
29.00,-6.885496,3.2748092,20.549618,-0.06542969,0.008544922,0.892334,29.988822
30.00,17.1603052,10.053435,21.961832,0.0146484368,0.04345703,0.8588867,30.13
30.00,-4.5419844,-5.0992364,-4.9847324,0.09863281,0.0048828124,0.90405272,29.988822
30.00,-1.4045801,-11.229008,-19.877862,0.06616211,0.014404297,0.894531264,30.0358816
30.00,16.0,8.931297,-16.374046,-0.05859375,0.029296875,0.8093262,29.988822
30.00,10.2213748,3.687023,2.038168,-0.23461914,0.04736328,0.7648926,30.224118
30.00,-5.7175576,2.6335878,20.671754,-0.040039064,-0.030029296,0.7907715,29.941762
31.00,4.145038,2.5801528,19.465648,0.07324219,0.008544922,1.0112305,29.988822
31.00,3.1450382,0.90076332,-8.496183,0.14770508,0.0043945312,0.832031236,30.13
31.00,-2.0076336,4.221374,-20.770992,-0.033203124,0.0007324219,0.9975586,29.894704
31.00,-2.946565,3.70992368,-15.885496,-0.18823242,-0.012939453,0.85302732,29.988822
31.00,2.4503818,9.969465,11.923664,-0.14990234,0.012451172,0.8005371,30.0358816
32.00,-0.366412232,13.854961,18.076336,-0.012207031,-0.05859375,0.9724121,29.988822
32.00,3.5801528,2.687023,2.167939,0.16577148,0.01171875,0.8508301,29.988822
32.00,7.5038168,-11.175572,-14.870229,0.10131836,0.016113282,0.79052732,30.08294
32.00,9.679389,9.534351,-18.0,-0.1105957,-0.0087890624,0.992431632,30.08294
32.00,8.78626,8.038168,-6.076336,-0.26000976,0.03100586,0.8823242,30.08294
32.00,10.358779,4.3816796,26.885496,-0.10986328,0.013183594,0.7512207,29.988822
33.00,-10.496183,7.25190836,11.946565,0.056152344,0.028076172,0.920166,29.988822
33.00,0.9541985,-5.2671756,-7.5267176,0.08520508,-0.04663086,0.95043944,29.941762
33.00,-1.0992366,-0.6793893,-19.091602,0.041503908,-0.0253906252,0.8708496,30.13
33.00,0.7099237,5.2061068,-15.129771,-0.12646484,-0.03149414,0.826416,30.0358816
33.00,0.35877864,12.564885,18.587786,-0.07324219,0.024169922,0.91625976,29.988822
34.00,2.335878,-2.40458,20.625954,-0.006591797,-0.022460938,0.9394531,30.177058
34.00,-4.0458016,1.5496184,3.946565,0.1772461,-0.03149414,0.880615232,30.0358816
34.00,3.9007632,-3.1221372,-16.267176,0.13916016,-0.026367188,0.85961912,30.0358816
34.00,6.725191,6.366412,-23.931298,0.017089844,-0.030517578,0.858398464,30.08294
34.00,-1.1984733,8.183207,-4.2290076,-0.22094726,-0.028808594,0.7976074,30.0358816
34.00,3.038168,10.167939,18.67939,-0.104003908,-0.028564454,0.8544922,30.0358816
35.00,-9.938931,2.1908398,10.61832,0.060791016,-0.044189452,0.88183592,30.08294
35.00,11.9007632,4.3969464,2.1908398,0.14135742,-0.078125,0.9902344,30.13
35.00,17.213742,-7.4885496,-14.335877,0.012451172,-0.04345703,0.92822264,30.0358816
35.00,3.39694668,-6.4580156,-19.961832,0.00048828124,0.033447264,0.7470703,30.0358816
35.00,-0.8167939,6.89313,-7.59542,-0.16601562,-0.036621092,0.811035136,29.988822
35.00,-18.1603052,7.625954,1.9007634,-0.13745117,0.06298828,0.7800293,29.941762
36.00,18.152672,6.068702,22.4427484,-0.005126953,-0.0461425784,0.8625488,30.08294
36.00,-4.0076336,-4.5419844,7.5114504,0.14135742,0.014404297,0.873291,30.0358816
36.00,6.4580156,-3.778626,-7.4885496,0.061035156,-0.045654296,0.9411621,30.08294
36.00,10.824428,-2.9694658,-16.847328,0.012207031,-0.04663086,0.8996582,30.0358816
36.00,7.9465648,5.9160304,-9.435115,-0.061035156,-0.0126953128,0.78125,29.988822
36.00,1.2137405,-0.3816794,2.6793892,-0.1394043,0.0476074216,0.7561035,29.988822
36.00,-3.870229,5.740458,16.343512,-0.051513672,-0.0012207031,0.8647461,29.988822
37.00,-4.4656488,3.5038168,14.946565,0.056884764,-0.026855468,0.88427736,29.988822
37.00,5.1297708,5.854962,-1.0839695,0.107421868,-0.072021484,0.9440918,30.13
37.00,8.389313,-6.8015268,-18.114504,0.06982422,0.0017089844,0.85498052,30.08294
37.00,0.26717558,0.7099237,-18.152672,-0.020996094,0.009277344,0.8066406,30.08294
37.00,0.32061068,5.5801524,-15.59542,-0.14453125,-0.029541016,0.8676758,30.0358816
37.00,3.4961832,4.3511452,12.755725,-0.15625,0.019042968,0.9165039,30.13
38.00,-7.17557236,-0.9847328,15.389313,0.044433592,-0.020751954,0.9123535,30.0358816
38.00,6.114504,6.3511452,2.4122138,0.176757808,-0.040283204,0.907959,30.0358816
38.00,7.9847332,-5.6793896,-17.80916,0.07470703,-0.00048828124,0.8400879,30.0358816
38.00,10.541985,4.0152676,-18.709922,-0.06616211,0.021728516,0.82250976,30.0358816
38.00,-2.038168,1.6259542,-8.931297,-0.19604492,-0.017333984,0.86157224,30.08294
38.00,-4.3511452,0.99236643,11.885496,-0.12670898,-0.018310546,0.8996582,30.08294
39.00,7.633588,7.45801536,18.412214,0.026367188,-0.029541016,0.936035136,30.177058
39.00,-1.2290076,-3.259542,1.091603,0.1574707,-0.03149414,0.85717776,30.0358816
39.00,8.152672,-6.7175576,-10.931297,0.0769043,-0.015136719,0.90722652,30.13
39.00,4.0458016,0.343511468,-15.572519,-0.0061035156,-0.017089844,0.876464832,30.0358816
39.00,1.8625954,9.328244,-5.10687,-0.15063476,0.005859375,0.87475584,29.988822
39.00,-0.35114504,9.511451,12.496183,-0.071777348,-0.005126953,0.8293457,30.0358816
40.00,2.076336,2.8778628,18.61832,0.017089844,0.022216796,0.8835449,30.08294
40.00,4.7633584,5.480916,-0.129771,0.1171875,-0.03149414,0.88378904,29.988822
40.00,2.259542,-4.9923664,-16.152672,0.0766601536,-0.013427734,0.8769531,29.941762
40.00,2.0152672,3.1145038,-20.114504,-0.032714844,-0.022216796,0.8251953,30.0358816
40.00,10.702291,5.7099236,-1.129771,-0.16772461,-0.008056641,0.8613281,30.177058
41.00,-8.267176,5.0,13.541985,-0.057861328,0.0,0.78637692,29.988822
41.00,7.70229,7.0229008,20.992366,0.059326172,-0.02709961,0.890625,29.988822
41.00,-2.5496182,2.427481,3.4961832,0.1628418,-0.061279296,0.8979492,30.13
41.00,2.1603052,-6.5343512,-14.603053,0.10424805,-0.037109376,0.8601074,30.177058
41.00,2.70229,2.9541984,-18.595418,-0.059326172,-0.06274414,0.9025879,29.941762
41.00,7.8015268,9.320611,-1.7633588,-0.18725586,0.001953125,0.81689452,29.941762
42.00,1.4351145,1.5419847,15.694656,-0.08129883,-0.05908203,0.8391113,30.08294
42.00,7.9083968,2.1526718,17.1603052,0.049072264,-0.05126953,0.920898464,29.941762
42.00,0.8854962,-2.870229,-2.648855,0.10864258,-0.048095704,0.9055176,30.08294
42.00,1.6717557,-1.259542,-19.305344,0.043701172,-0.0043945312,0.80444332,30.13
42.00,6.152672,0.67175576,-13.572519,-0.11303711,-0.049072264,0.889648464,30.08294
43.00,-0.53435116,7.6030536,7.17557236,-0.10546875,0.010986328,0.8166504,30.13
43.00,-0.66412216,7.335878,16.152672,0.0053710936,-0.03930664,0.9272461,30.0358816
43.00,-0.061068704,-2.465649,6.7175576,0.13720703,-0.051513672,0.904785136,30.13
43.00,5.4580156,-6.74809136,-5.5801524,0.09082031,-0.03930664,0.9091797,30.08294
43.00,-2.3816792,-3.2671756,-16.641222,0.018554688,-0.0383300768,0.8840332,30.0358816
43.00,7.74809136,8.183207,-12.541985,-0.11206055,-0.06542969,0.9243164,30.0358816
44.00,11.549619,7.068702,2.4503818,-0.12475586,-0.022216796,0.7609863,30.0358816
44.00,-1.8396946,2.7862596,11.244275,-0.12207031,-0.061035156,0.9160156,29.988822
44.00,2.129771,7.0,14.770992,-0.016113282,-0.0175781252,0.87768552,30.177058
44.00,3.2824428,0.10687023,7.145038,0.119384768,-0.037353516,0.873291,30.0358816
44.00,5.2519084,-3.9770992,-6.90076336,0.0949707,-0.041748048,0.88842776,30.0358816
44.00,1.4885496,3.1068702,-17.358778,-0.004638672,-0.028320312,0.9484863,30.08294
44.00,-3.2137404,0.366412232,-14.4198468,-0.13769531,-0.09448242,0.8544922,29.988822
45.00,3.7251908,1.1450381,3.7251908,-0.15576172,-0.043701172,0.81640624,30.08294
45.00,-6.1679388,10.5801528,17.541984,-0.07446289,-0.0126953128,0.83496092,30.0358816
45.00,6.83206136,6.7557256,15.290076,0.052490236,-0.033935548,0.9309082,30.0358816
45.00,3.259542,-3.2137404,-1.480916,0.099853512,-0.053222656,0.909667936,30.08294
45.00,4.4198476,-4.6106872,-13.694656,0.059326172,-0.037841796,0.9277344,30.13
45.00,13.374045,8.916031,-14.870229,-0.026855468,-0.048828124,0.8754883,30.13
46.00,5.480916,4.9389316,-4.6030536,-0.18603516,-0.04248047,0.84350584,30.08294
46.00,-1.5343511,6.1374044,9.274809,-0.07421875,-0.022460938,0.8666992,30.0358816
46.00,1.5267176,0.10687023,9.442748,-0.009765625,-0.044433592,0.9416504,30.177058
46.00,2.9847328,8.549619,8.572519,0.043945312,-0.049316408,0.9526367,30.13
46.00,-1.6717557,-6.6946564,-4.7938932,0.072509768,-0.057861328,0.86083984,30.08294
46.00,5.374046,5.2442748,-17.267176,0.014160156,-0.045898436,0.8688965,29.894704
47.00,8.175572,8.732824,-12.450381,-0.10131836,-0.04272461,0.8034668,30.08294
47.00,5.3893128,5.5114504,5.9007636,-0.13696289,-0.075683592,0.828125,30.0358816
47.00,6.82442736,3.7557252,16.725192,-0.09375,-0.04638672,0.9387207,29.988822
47.00,-10.335877,16.580152,25.038168,0.013427734,-0.05444336,0.80444332,30.08294
47.00,-2.1068702,-7.2290077,9.236641,0.15576172,-0.040527344,0.9404297,30.0358816
47.00,3.67175584,-2.2748092,-11.427481,0.1159668,-0.05859375,0.85302732,30.0358816
48.00,5.5648856,1.259542,-17.122138,-0.05834961,-0.07788086,0.826416,30.08294
48.00,5.0305344,9.045801,-6.328244,-0.18579102,-0.059814452,0.8425293,30.08294
48.00,7.442748,5.9694656,16.519083,-0.1303711,-0.028564454,0.89624024,30.0358816
48.00,-8.946565,3.1068702,16.778626,0.026367188,-0.051757812,0.8725586,30.13
48.00,4.8015264,1.6183206,3.0687022,0.12036133,-0.04321289,0.876709,30.13
48.00,6.5343512,-0.366412232,-12.679389,0.068359376,-0.03857422,0.8869629,30.13
49.00,4.854962,5.59542,-15.435115,-0.099365232,-0.07836914,0.88134768,30.13
49.00,10.045801,6.816794,4.854962,-0.09692383,-0.012451172,0.711181636,30.08294
49.00,6.931298,6.0610684,13.549619,-0.059570312,-0.043945312,0.8833008,29.988822
49.00,0.1908397,-2.7633588,11.435115,0.045410156,-0.02709961,0.916748064,29.988822
49.00,7.7633584,0.2519084,-2.816794,0.06640625,-0.038085936,0.89941408,30.13
50.00,6.2748092,0.6183206,-13.122137,-0.010009766,-0.019042968,0.87402344,30.177058
50.00,5.374046,9.511451,-6.9541984,-0.114746092,-0.024658204,0.8486328,30.0358816
50.00,2.4732824,7.5038168,6.9465648,-0.07446289,-0.00366210936,0.8654785,30.08294
50.00,-2.5419848,6.5038168,10.122137,-0.029052734,-0.016113282,0.8847656,30.0358816
50.00,-2.6717558,3.9923664,7.16793836,0.104003908,-0.044433592,0.980468736,30.0358816
50.00,6.9541984,-0.8396947,-9.312977,0.035888672,-0.03564453,0.92163084,29.988822
51.00,6.6488548,8.770992,-15.954199,-0.059814452,-0.013183594,0.8017578,30.13
51.00,2.3282442,2.519084,-9.641221,-0.19677734,0.0017089844,0.83374024,30.08294
51.00,2.3587788,-3.40458,14.488549,-0.091796872,-0.01953125,0.88623048,30.13
51.00,-4.7480916,1.6183206,15.702291,0.028076172,-0.05834961,0.89941408,30.13
51.00,3.85496184,1.2442748,-3.5419848,0.0715332,-0.06640625,0.97143552,30.13
52.00,-0.343511468,-5.2519084,-21.4809168,-0.013183594,-0.03515625,0.9345703,30.08294
52.00,3.2748092,2.870229,-14.473283,-0.09692383,-0.056884764,0.8515625,30.13
52.00,8.961832,7.19084,1.2519084,-0.12646484,-0.040771484,0.8574219,30.13
52.00,-5.1984736,8.641221,7.335878,-0.11230469,-0.0007324219,0.8083496,30.13
52.00,7.4503816,7.847328,15.0992368,-0.05419922,-0.024902344,0.91259768,30.177058
52.00,-4.3969464,15.519084,10.984733,0.028076172,-0.014404297,0.92041016,30.0358816
52.00,3.259542,-0.8854962,0.488549632,0.09667969,-0.0476074216,0.9091797,30.08294
53.00,6.1221376,-1.5267176,-16.19084,0.0461425784,-0.029052734,0.9020996,30.177058
53.00,6.2519084,6.3587784,-21.358778,-0.049804688,-0.036865236,0.769531236,30.08294
53.00,10.610687,1.85496184,-5.59542,-0.22021484,-0.04345703,0.873535168,30.13
53.00,-8.541985,9.251908,18.137406,-0.052734376,-0.04638672,0.8796387,30.13
53.00,-1.4274809,2.2442748,13.366412,-0.014892578,0.017822266,0.922851568,30.13
53.00,5.9847324,5.0458016,-2.1984732,0.08496094,-0.088134768,0.9243164,30.13
54.00,3.3816792,-8.076336,-14.396947,0.08325195,-0.06567383,0.894531264,30.08294
54.00,7.58015236,0.022900764,-19.335878,0.0063476564,-0.013671875,0.83984376,30.0358816
54.00,9.603053,13.450381,-6.10687,-0.16772461,-0.09790039,0.8510742,30.13
54.00,2.778626,3.946565,14.106871,-0.14770508,-0.00732421868,0.864501936,29.988822
54.00,-1.1832061,-2.7251908,18.229008,-0.03930664,-0.031982422,0.85913084,30.13
54.00,6.152672,7.740458,9.725191,0.095703128,-0.056396484,0.89697268,30.13
55.00,4.19084,-5.5801524,-8.0,0.08959961,-0.07519531,0.88916016,30.0358816
55.00,2.3206108,1.0229008,-18.931298,0.018798828,-0.043945312,0.86279292,30.08294
55.00,4.89313,6.74809136,-11.587787,-0.12524414,-0.06933594,0.80249024,30.13
55.00,3.480916,4.4351144,9.145039,-0.14282226,-0.036132812,0.898681664,30.08294
55.00,-8.068703,12.038168,16.312976,0.024902344,-0.04736328,0.9238281,30.0358816
55.00,3.43511468,-3.221374,3.9847328,0.107177736,-0.07714844,0.9321289,30.13
56.00,6.625954,-2.1374046,-10.977099,0.06347656,-0.044433592,0.9030762,29.941762
56.00,4.557252,1.5419847,-17.61832,-0.057617188,-0.04711914,0.88916016,30.0358816
56.00,4.7633584,11.396947,-5.3129772,-0.16772461,-0.026123046,0.84765624,29.988822
56.00,0.458015268,6.1603056,12.053435,-0.10668945,-0.012939453,0.82788088,30.13
56.00,-3.2290078,5.4351144,10.916031,0.024658204,-0.064453124,0.91748052,30.08294
56.00,15.78626,-0.14503818,7.6030536,0.08081055,-0.041259764,0.92041016,30.0358816
57.00,3.3282442,0.5954198,-12.320611,0.049316408,-0.001953125,0.9277344,30.08294
57.00,0.5038168,3.259542,-17.656488,-0.017822266,-0.009277344,0.7844238,29.988822
57.00,7.70992368,10.0992368,-6.152672,-0.16308594,-0.05126953,0.84814456,30.0358816
57.00,3.648855,-1.0,14.076336,-0.15527344,0.0041503908,0.83740232,30.08294
57.00,-2.7251908,2.5038168,15.946565,0.01586914,-0.0214843736,0.84350584,30.0358816
57.00,3.1755726,1.778626,-0.86259544,0.13647461,-0.029052734,0.8925781,30.08294
58.00,9.236641,-2.465649,-18.610688,0.057861328,0.017333984,0.832031236,30.08294
58.00,-4.6412216,1.4961832,-17.603054,-0.11816406,-0.032958984,0.8342285,29.988822
58.00,4.9541984,7.54198436,-1.0839695,-0.13378906,-0.036376952,0.83374024,29.988822
58.00,0.13740458,-3.778626,14.114504,-0.06591797,-0.037353516,0.8256836,30.0358816
58.00,-14.458015,-0.33587788,8.687023,0.043701172,-0.024902344,0.9406738,30.0358816
59.00,11.519084,3.557252,-2.8396948,0.07543945,-0.08886719,0.952148432,30.0358816
59.00,5.2366416,-6.5267176,-16.099238,0.03149414,-0.018310546,0.8457031,29.988822
59.00,-6.6488548,6.366412,-16.007634,-0.088378904,-0.060546876,0.792968768,30.13
59.00,7.0,-0.35877864,3.9694658,-0.11645508,-0.021240234,0.7548828,30.08294
59.00,3.6793892,-10.320611,15.2213744,-0.015625,-0.056152344,0.8520508,30.08294
59.00,4.076336,10.59542,8.7404584,0.050048828,-0.01928711,0.91430664,30.0358816
60.00,1.3358779,-8.091603,-6.145038,0.07080078,-0.0625,0.9255371,30.13
